Folder: hyperspectral_benchmark/data/spectra_ascii (part 4)

File: AsphaltTrockenVerschmutzung2___corthum00448.txt
Wavelength (nm),Reflectance
350.0,0.417654
358.0,0.418721
366.0,0.41985
374.0,0.421032
382.0,0.423781
390.0,0.425385
398.0,0.426936
406.0,0.428472
414.0,0.430092
422.0,0.431646
430.0,0.43358
438.0,0.435347
446.0,0.43712
454.0,0.438705
462.0,0.440005
470.0,0.441499
478.0,0.442698
486.0,0.444214
494.0,0.445973
502.0,0.447688
510.0,0.449454
518.0,0.451171
526.0,0.453013
534.0,0.455234
542.0,0.457764
550.0,0.460419
558.0,0.463546
566.0,0.466454
574.0,0.469433
582.0,0.471996
590.0,0.474454
598.0,0.476558
606.0,0.478465
614.0,0.480122
622.0,0.481897
630.0,0.483348
638.0,0.484982
646.0,0.486438
654.0,0.487765
662.0,0.489227
670.0,0.490453
678.0,0.491758
686.0,0.492852
694.0,0.494235
702.0,0.495275
710.0,0.496189
718.0,0.497623
726.0,0.498672
734.0,0.4997
742.0,0.501001
750.0,0.502129
758.0,0.503447
766.0,0.504766
774.0,0.505666
782.0,0.506802
790.0,0.507885
798.0,0.508825
806.0,0.509746
814.0,0.510764
822.0,0.511675
830.0,0.512447
838.0,0.513148
846.0,0.513908
854.0,0.514635
862.0,0.515121
870.0,0.515652
878.0,0.516193
886.0,0.517196
894.0,0.518162
902.0,0.518426
910.0,0.519706
918.0,0.5195
926.0,0.520386
934.0,0.519236
942.0,0.520149
950.0,0.52146
958.0,0.520946
966.0,0.522683
974.0,0.522744
982.0,0.523463
990.0,0.52367
998.0,0.52436
1006.0,0.492223
1014.0,0.492529
1022.0,0.493296
1030.0,0.493867
1038.0,0.493103
1046.0,0.493313
1054.0,0.494815
1062.0,0.494277
1070.0,0.493477
1078.0,0.494486
1086.0,0.494811
1094.0,0.495951
1102.0,0.495916
1110.0,0.497728
1118.0,0.500405
1126.0,0.499489
1134.0,0.495536
1142.0,0.497214
1150.0,0.496721
1158.0,0.496972
1166.0,0.49704
1174.0,0.498134
1182.0,0.4981
1190.0,0.499082
1198.0,0.4996
1206.0,0.499104
1214.0,0.499545
1222.0,0.499498
1230.0,0.500568
1238.0,0.499605
1246.0,0.500446
1254.0,0.501419
1262.0,0.501776
1270.0,0.500044
1278.0,0.500135
1286.0,0.500487
1294.0,0.501248
1302.0,0.501339
1310.0,0.502387
1318.0,0.502621
1326.0,0.503976
1334.0,0.503723
1342.0,0.506919
1350.0,0.512816
1358.0,0.574938
1366.0,0.68186
1374.0,1.0
1382.0,0.800413
1390.0,0.566493
1398.0,0.533474
1406.0,0.503924
1414.0,0.505792
1422.0,0.508435
1430.0,0.507052
1438.0,0.509337
1446.0,0.507319
1454.0,0.50877
1462.0,0.511861
1470.0,0.510762
1478.0,0.511917
1486.0,0.511256
1494.0,0.512707
1502.0,0.513985
1510.0,0.513827
1518.0,0.514854
1526.0,0.515657
1534.0,0.515605
1542.0,0.515863
1550.0,0.51635
1558.0,0.517178
1566.0,0.517389
1574.0,0.518006
1582.0,0.517726
1590.0,0.517916
1598.0,0.518491
1606.0,0.517687
1614.0,0.517443
1622.0,0.517082
1630.0,0.519921
1638.0,0.518505
1646.0,0.518805
1654.0,0.518995
1662.0,0.519284
1670.0,0.520806
1678.0,0.521946
1686.0,0.521779
1694.0,0.521489
1702.0,0.522673
1710.0,0.523115
1718.0,0.522303
1726.0,0.523572
1734.0,0.523866
1742.0,0.526914
1750.0,0.525458
1758.0,0.52379
1766.0,0.52725
1774.0,0.525624
1782.0,0.526411
1790.0,0.526128
1798.0,0.525755
1806.0,0.50156
1814.0,0.543984
1822.0,0.482353
1830.0,0.632435
1838.0,0.0
1846.0,0.152703
1854.0,0.546592
1862.0,1.0
1870.0,0.551495
1878.0,1.0
1886.0,0.375223
1894.0,0.387038
1902.0,0.342314
1910.0,0.739455
1918.0,0.673768
1926.0,0.487259
1934.0,0.511204
1942.0,0.528725
1950.0,0.492376
1958.0,0.49378
1966.0,0.501106
1974.0,0.500017
1982.0,0.502882
1990.0,0.496276
1998.0,0.508243
2006.0,0.509043
2014.0,0.500474
2022.0,0.494551
2030.0,0.501292
2038.0,0.50015
2046.0,0.50856
2054.0,0.510357
2062.0,0.505075
2070.0,0.508662
2078.0,0.502629
2086.0,0.502965
2094.0,0.512413
2102.0,0.509268
2110.0,0.510854
2118.0,0.509952
2126.0,0.508964
2134.0,0.508508
2142.0,0.509114
2150.0,0.509217
2158.0,0.508665
2166.0,0.510561
2174.0,0.504094
2182.0,0.513746
2190.0,0.503373
2198.0,0.502948
2206.0,0.503352
2214.0,0.505729
2222.0,0.50919
2230.0,0.505863
2238.0,0.503762
2246.0,0.510983
2254.0,0.499514
2262.0,0.512133
2270.0,0.510762
2278.0,0.505426
2286.0,0.505971
2294.0,0.511313
2302.0,0.497239
2310.0,0.508936
2318.0,0.509403
2326.0,0.503041
2334.0,0.505586
2342.0,0.515839
2350.0,0.493454
2358.0,0.514507
2366.0,0.508742
2374.0,0.49627
2382.0,0.499099
2390.0,0.509487
2398.0,0.511197
2406.0,0.505691
2414.0,0.460366
2422.0,0.526861
2430.0,0.523175
2438.0,0.491237
2446.0,0.610199
2454.0,0.458372
2462.0,0.488067
2470.0,0.530453
2478.0,0.595928
2486.0,0.582069
2494.0,0.363081
2500.0,0.568577

File: AsphaltTrockenVerschmutzung2___corthum00449.txt
Wavelength (nm),Reflectance
350.0,0.0791437
358.0,0.0809736
366.0,0.0826724
374.0,0.0852454
382.0,0.0884301
390.0,0.0908145
398.0,0.0937802
406.0,0.0957917
414.0,0.0982288
422.0,0.100739
430.0,0.103681
438.0,0.106648
446.0,0.109337
454.0,0.111783
462.0,0.113864
470.0,0.115946
478.0,0.117987
486.0,0.120418
494.0,0.123025
502.0,0.12581
510.0,0.128606
518.0,0.131567
526.0,0.134577
534.0,0.138093
542.0,0.142173
550.0,0.14652
558.0,0.151544
566.0,0.156443
574.0,0.161063
582.0,0.165279
590.0,0.169116
598.0,0.17234
606.0,0.17528
614.0,0.177962
622.0,0.180495
630.0,0.182919
638.0,0.185253
646.0,0.187544
654.0,0.189612
662.0,0.191627
670.0,0.193448
678.0,0.195259
686.0,0.197029
694.0,0.198775
702.0,0.200261
710.0,0.201755
718.0,0.20368
726.0,0.205283
734.0,0.20678
742.0,0.208529
750.0,0.210285
758.0,0.212223
766.0,0.214312
774.0,0.21547
782.0,0.217146
790.0,0.218689
798.0,0.220124
806.0,0.221514
814.0,0.223093
822.0,0.22432
830.0,0.225411
838.0,0.22646
846.0,0.227583
854.0,0.228594
862.0,0.229542
870.0,0.230356
878.0,0.231284
886.0,0.232478
894.0,0.233522
902.0,0.234488
910.0,0.235572
918.0,0.236358
926.0,0.237266
934.0,0.235943
942.0,0.237442
950.0,0.238345
958.0,0.2385
966.0,0.240305
974.0,0.240496
982.0,0.241718
990.0,0.241913
998.0,0.241984
1006.0,0.246885
1014.0,0.247281
1022.0,0.247822
1030.0,0.248195
1038.0,0.248573
1046.0,0.248983
1054.0,0.249607
1062.0,0.249627
1070.0,0.250087
1078.0,0.250566
1086.0,0.250527
1094.0,0.25134
1102.0,0.251718
1110.0,0.252051
1118.0,0.253284
1126.0,0.254301
1134.0,0.252682
1142.0,0.253856
1150.0,0.25424
1158.0,0.254674
1166.0,0.254873
1174.0,0.255441
1182.0,0.25585
1190.0,0.256376
1198.0,0.256846
1206.0,0.256898
1214.0,0.257053
1222.0,0.257057
1230.0,0.257332
1238.0,0.256991
1246.0,0.257158
1254.0,0.257669
1262.0,0.257732
1270.0,0.257836
1278.0,0.257592
1286.0,0.257984
1294.0,0.258272
1302.0,0.258012
1310.0,0.258902
1318.0,0.258767
1326.0,0.259568
1334.0,0.259819
1342.0,0.261484
1350.0,0.261957
1358.0,0.271106
1366.0,0.462277
1374.0,0.456387
1382.0,0.400404
1390.0,0.318211
1398.0,0.252643
1406.0,0.258733
1414.0,0.259267
1422.0,0.258131
1430.0,0.26263
1438.0,0.262991
1446.0,0.262272
1454.0,0.263604
1462.0,0.263959
1470.0,0.262737
1478.0,0.264436
1486.0,0.264511
1494.0,0.265038
1502.0,0.264682
1510.0,0.265157
1518.0,0.265181
1526.0,0.265474
1534.0,0.265572
1542.0,0.265407
1550.0,0.264928
1558.0,0.265218
1566.0,0.265504
1574.0,0.265335
1582.0,0.265337
1590.0,0.264994
1598.0,0.264868
1606.0,0.264199
1614.0,0.263233
1622.0,0.262992
1630.0,0.263853
1638.0,0.262394
1646.0,0.262135
1654.0,0.261712
1662.0,0.261409
1670.0,0.262213
1678.0,0.262131
1686.0,0.263003
1694.0,0.262245
1702.0,0.263076
1710.0,0.262528
1718.0,0.261855
1726.0,0.262946
1734.0,0.262571
1742.0,0.263724
1750.0,0.263156
1758.0,0.261867
1766.0,0.263428
1774.0,0.26195
1782.0,0.262276
1790.0,0.263439
1798.0,0.260116
1806.0,0.263657
1814.0,0.296307
1822.0,0.284296
1830.0,0.348655
1838.0,0.0
1846.0,0.56096
1854.0,0.214505
1862.0,1.0
1870.0,0.569074
1878.0,1.0
1886.0,0.244926
1894.0,0.235525
1902.0,0.0851162
1910.0,0.963948
1918.0,0.274641
1926.0,0.218408
1934.0,0.235542
1942.0,0.271733
1950.0,0.234348
1958.0,0.251124
1966.0,0.253749
1974.0,0.253767
1982.0,0.258044
1990.0,0.254099
1998.0,0.260347
2006.0,0.259125
2014.0,0.265628
2022.0,0.252292
2030.0,0.261067
2038.0,0.259004
2046.0,0.266034
2054.0,0.267604
2062.0,0.266463
2070.0,0.270236
2078.0,0.265155
2086.0,0.263983
2094.0,0.266342
2102.0,0.265396
2110.0,0.267305
2118.0,0.26915
2126.0,0.268491
2134.0,0.266819
2142.0,0.264881
2150.0,0.267684
2158.0,0.263042
2166.0,0.264657
2174.0,0.258365
2182.0,0.261823
2190.0,0.255952
2198.0,0.254804
2206.0,0.253474
2214.0,0.252703
2222.0,0.254869
2230.0,0.254558
2238.0,0.252717
2246.0,0.255525
2254.0,0.247672
2262.0,0.256351
2270.0,0.255978
2278.0,0.251346
2286.0,0.24949
2294.0,0.252215
2302.0,0.245927
2310.0,0.251413
2318.0,0.248732
2326.0,0.246749
2334.0,0.241239
2342.0,0.252731
2350.0,0.243829
2358.0,0.254407
2366.0,0.247821
2374.0,0.246669
2382.0,0.253321
2390.0,0.242561
2398.0,0.249639
2406.0,0.247483
2414.0,0.226809
2422.0,0.264916
2430.0,0.249818
2438.0,0.241699
2446.0,0.324165
2454.0,0.254924
2462.0,0.248626
2470.0,0.256923
2478.0,0.271573
2486.0,0.353807
2494.0,0.335272
2500.0,0.377097

File: AsphaltTrockenVerschmutzung2___corthum00450.txt
Wavelength (nm),Reflectance
350.0,0.079077
358.0,0.0809765
366.0,0.0831743
374.0,0.0857911
382.0,0.0889339
390.0,0.0916879
398.0,0.0944684
406.0,0.0966563
414.0,0.0992232
422.0,0.101906
430.0,0.104878
438.0,0.108002
446.0,0.110798
454.0,0.113268
462.0,0.115479
470.0,0.117663
478.0,0.119795
486.0,0.12228
494.0,0.125014
502.0,0.127882
510.0,0.130777
518.0,0.133838
526.0,0.136951
534.0,0.140556
542.0,0.144654
550.0,0.149135
558.0,0.154226
566.0,0.159164
574.0,0.163945
582.0,0.168189
590.0,0.172187
598.0,0.175404
606.0,0.178496
614.0,0.181187
622.0,0.183854
630.0,0.186352
638.0,0.188777
646.0,0.191069
654.0,0.193201
662.0,0.195203
670.0,0.197123
678.0,0.198941
686.0,0.20066
694.0,0.202326
702.0,0.203821
710.0,0.205284
718.0,0.207096
726.0,0.208634
734.0,0.210036
742.0,0.211806
750.0,0.213505
758.0,0.215413
766.0,0.21753
774.0,0.218716
782.0,0.220338
790.0,0.221885
798.0,0.223382
806.0,0.224767
814.0,0.226259
822.0,0.227535
830.0,0.228706
838.0,0.22971
846.0,0.230773
854.0,0.231937
862.0,0.232794
870.0,0.233596
878.0,0.234557
886.0,0.235633
894.0,0.236821
902.0,0.237553
910.0,0.238636
918.0,0.23923
926.0,0.240197
934.0,0.238443
942.0,0.240453
950.0,0.241071
958.0,0.241599
966.0,0.243456
974.0,0.243586
982.0,0.243873
990.0,0.244739
998.0,0.245253
1006.0,0.250302
1014.0,0.250466
1022.0,0.250666
1030.0,0.251271
1038.0,0.251653
1046.0,0.25187
1054.0,0.252889
1062.0,0.2526
1070.0,0.252393
1078.0,0.253135
1086.0,0.253452
1094.0,0.25409
1102.0,0.254609
1110.0,0.255262
1118.0,0.255157
1126.0,0.255448
1134.0,0.254291
1142.0,0.255994
1150.0,0.25655
1158.0,0.258045
1166.0,0.257626
1174.0,0.257918
1182.0,0.258438
1190.0,0.259213
1198.0,0.25944
1206.0,0.259442
1214.0,0.259867
1222.0,0.259827
1230.0,0.260169
1238.0,0.25956
1246.0,0.259796
1254.0,0.260321
1262.0,0.260142
1270.0,0.259973
1278.0,0.25998
1286.0,0.260154
1294.0,0.260201
1302.0,0.260352
1310.0,0.260697
1318.0,0.260529
1326.0,0.26171
1334.0,0.261612
1342.0,0.262832
1350.0,0.263784
1358.0,0.278874
1366.0,0.221585
1374.0,0.549462
1382.0,0.369516
1390.0,0.319911
1398.0,0.249871
1406.0,0.257272
1414.0,0.259551
1422.0,0.26228
1430.0,0.264288
1438.0,0.26492
1446.0,0.264951
1454.0,0.265564
1462.0,0.266464
1470.0,0.265865
1478.0,0.267869
1486.0,0.267415
1494.0,0.268351
1502.0,0.268189
1510.0,0.268272
1518.0,0.268278
1526.0,0.268874
1534.0,0.268361
1542.0,0.268274
1550.0,0.268286
1558.0,0.268222
1566.0,0.268073
1574.0,0.267913
1582.0,0.267769
1590.0,0.267511
1598.0,0.267614
1606.0,0.266956
1614.0,0.265635
1622.0,0.265138
1630.0,0.265857
1638.0,0.264833
1646.0,0.264301
1654.0,0.263606
1662.0,0.264449
1670.0,0.264523
1678.0,0.264773
1686.0,0.265212
1694.0,0.264712
1702.0,0.265432
1710.0,0.26533
1718.0,0.264895
1726.0,0.264863
1734.0,0.265132
1742.0,0.265602
1750.0,0.265384
1758.0,0.264382
1766.0,0.265218
1774.0,0.265438
1782.0,0.264837
1790.0,0.266625
1798.0,0.26376
1806.0,0.264024
1814.0,0.296251
1822.0,0.284243
1830.0,0.33676
1838.0,0.0
1846.0,0.52146
1854.0,0.395429
1862.0,1.0
1870.0,1.0
1878.0,1.0
1886.0,0.349638
1894.0,0.271899
1902.0,0.27793
1910.0,0.334641
1918.0,0.424468
1926.0,0.286398
1934.0,0.277225
1942.0,0.287338
1950.0,0.252388
1958.0,0.261923
1966.0,0.259503
1974.0,0.261593
1982.0,0.261447
1990.0,0.259468
1998.0,0.262785
2006.0,0.266352
2014.0,0.274581
2022.0,0.262329
2030.0,0.261539
2038.0,0.265619
2046.0,0.269463
2054.0,0.268673
2062.0,0.271377
2070.0,0.270234
2078.0,0.266607
2086.0,0.267834
2094.0,0.271258
2102.0,0.269744
2110.0,0.2717
2118.0,0.271415
2126.0,0.269731
2134.0,0.27093
2142.0,0.266058
2150.0,0.268768
2158.0,0.26652
2166.0,0.269537
2174.0,0.260376
2182.0,0.265095
2190.0,0.258453
2198.0,0.257581
2206.0,0.252619
2214.0,0.256699
2222.0,0.255369
2230.0,0.255018
2238.0,0.254047
2246.0,0.256297
2254.0,0.248064
2262.0,0.256667
2270.0,0.259403
2278.0,0.256978
2286.0,0.251169
2294.0,0.256232
2302.0,0.254613
2310.0,0.249837
2318.0,0.255456
2326.0,0.255068
2334.0,0.254094
2342.0,0.248978
2350.0,0.248318
2358.0,0.256717
2366.0,0.253405
2374.0,0.250236
2382.0,0.255594
2390.0,0.251249
2398.0,0.246296
2406.0,0.251779
2414.0,0.233779
2422.0,0.272311
2430.0,0.256244
2438.0,0.24182
2446.0,0.330861
2454.0,0.241801
2462.0,0.250173
2470.0,0.276315
2478.0,0.313427
2486.0,0.245644
2494.0,0.234147
2500.0,0.332422

File: AsphaltTrockenVerschmutzung2___corthum00451.txt
Wavelength (nm),Reflectance
350.0,0.080927
358.0,0.0830497
366.0,0.084946
374.0,0.0874533
382.0,0.090892
390.0,0.0933419
398.0,0.0965738
406.0,0.0988945
414.0,0.101526
422.0,0.10415
430.0,0.107333
438.0,0.110424
446.0,0.113319
454.0,0.115908
462.0,0.118243
470.0,0.120469
478.0,0.122621
486.0,0.125091
494.0,0.127921
502.0,0.130839
510.0,0.133764
518.0,0.136806
526.0,0.139957
534.0,0.143668
542.0,0.147849
550.0,0.152371
558.0,0.157531
566.0,0.16254
574.0,0.167311
582.0,0.17161
590.0,0.175597
598.0,0.178903
606.0,0.181988
614.0,0.184748
622.0,0.187365
630.0,0.189888
638.0,0.192257
646.0,0.194605
654.0,0.196708
662.0,0.198652
670.0,0.200502
678.0,0.202193
686.0,0.203789
694.0,0.205332
702.0,0.206624
710.0,0.207857
718.0,0.20942
726.0,0.210709
734.0,0.212048
742.0,0.213643
750.0,0.215126
758.0,0.217018
766.0,0.218829
774.0,0.220046
782.0,0.221577
790.0,0.223055
798.0,0.224521
806.0,0.225771
814.0,0.227197
822.0,0.228407
830.0,0.229493
838.0,0.230545
846.0,0.231566
854.0,0.232711
862.0,0.233457
870.0,0.234129
878.0,0.235087
886.0,0.236131
894.0,0.237041
902.0,0.237926
910.0,0.23889
918.0,0.239502
926.0,0.240192
934.0,0.238355
942.0,0.239707
950.0,0.240849
958.0,0.241057
966.0,0.24303
974.0,0.243028
982.0,0.244001
990.0,0.245004
998.0,0.244893
1006.0,0.24945
1014.0,0.250264
1022.0,0.251057
1030.0,0.251049
1038.0,0.251187
1046.0,0.251448
1054.0,0.252349
1062.0,0.252536
1070.0,0.251726
1078.0,0.252718
1086.0,0.252739
1094.0,0.253062
1102.0,0.253661
1110.0,0.254719
1118.0,0.255374
1126.0,0.255922
1134.0,0.254553
1142.0,0.255692
1150.0,0.255999
1158.0,0.256483
1166.0,0.256439
1174.0,0.257474
1182.0,0.257559
1190.0,0.258679
1198.0,0.258973
1206.0,0.259075
1214.0,0.259106
1222.0,0.259215
1230.0,0.259573
1238.0,0.258716
1246.0,0.259054
1254.0,0.259552
1262.0,0.259594
1270.0,0.259128
1278.0,0.259194
1286.0,0.259388
1294.0,0.259298
1302.0,0.259503
1310.0,0.259836
1318.0,0.259835
1326.0,0.260528
1334.0,0.26085
1342.0,0.262628
1350.0,0.264173
1358.0,0.289743
1366.0,0.384219
1374.0,0.689379
1382.0,0.372482
1390.0,0.307945
1398.0,0.276923
1406.0,0.268835
1414.0,0.261389
1422.0,0.265951
1430.0,0.264732
1438.0,0.264729
1446.0,0.265035
1454.0,0.264648
1462.0,0.266421
1470.0,0.265175
1478.0,0.268461
1486.0,0.267548
1494.0,0.268181
1502.0,0.2683
1510.0,0.26828
1518.0,0.268148
1526.0,0.268484
1534.0,0.268376
1542.0,0.26849
1550.0,0.268167
1558.0,0.26819
1566.0,0.268302
1574.0,0.268
1582.0,0.267639
1590.0,0.267272
1598.0,0.267238
1606.0,0.266482
1614.0,0.265049
1622.0,0.264606
1630.0,0.265664
1638.0,0.264484
1646.0,0.264427
1654.0,0.264542
1662.0,0.264422
1670.0,0.264759
1678.0,0.264637
1686.0,0.264928
1694.0,0.264483
1702.0,0.265366
1710.0,0.26486
1718.0,0.265273
1726.0,0.265342
1734.0,0.264835
1742.0,0.265848
1750.0,0.265333
1758.0,0.264565
1766.0,0.266305
1774.0,0.265299
1782.0,0.265239
1790.0,0.266421
1798.0,0.264113
1806.0,0.270345
1814.0,0.299438
1822.0,0.257815
1830.0,0.166101
1838.0,0.0
1846.0,0.301988
1854.0,0.610011
1862.0,1.0
1870.0,0.523738
1878.0,1.0
1886.0,0.25891
1894.0,0.173769
1902.0,0.231275
1910.0,0.679662
1918.0,0.2899
1926.0,0.289503
1934.0,0.269401
1942.0,0.269952
1950.0,0.237982
1958.0,0.273219
1966.0,0.258843
1974.0,0.256574
1982.0,0.26198
1990.0,0.259749
1998.0,0.266578
2006.0,0.263958
2014.0,0.272072
2022.0,0.25883
2030.0,0.263567
2038.0,0.262875
2046.0,0.269042
2054.0,0.270246
2062.0,0.268304
2070.0,0.268711
2078.0,0.266651
2086.0,0.267275
2094.0,0.27142
2102.0,0.269596
2110.0,0.26919
2118.0,0.269683
2126.0,0.268618
2134.0,0.268346
2142.0,0.267845
2150.0,0.269085
2158.0,0.268047
2166.0,0.26718
2174.0,0.260507
2182.0,0.263611
2190.0,0.258747
2198.0,0.258734
2206.0,0.254055
2214.0,0.257069
2222.0,0.256277
2230.0,0.253445
2238.0,0.253956
2246.0,0.258693
2254.0,0.252134
2262.0,0.256852
2270.0,0.255466
2278.0,0.255662
2286.0,0.254383
2294.0,0.253305
2302.0,0.24533
2310.0,0.251139
2318.0,0.254489
2326.0,0.248556
2334.0,0.249499
2342.0,0.25719
2350.0,0.253538
2358.0,0.257093
2366.0,0.251337
2374.0,0.260157
2382.0,0.241931
2390.0,0.247112
2398.0,0.246288
2406.0,0.255396
2414.0,0.226408
2422.0,0.247867
2430.0,0.257455
2438.0,0.244083
2446.0,0.30013
2454.0,0.223151
2462.0,0.259085
2470.0,0.267348
2478.0,0.323652
2486.0,0.226991
2494.0,0.200056
2500.0,0.315879

File: AsphaltTrockenVerschmutzung2___corthum00452.txt
Wavelength (nm),Reflectance
350.0,0.0791815
358.0,0.0812832
366.0,0.0830838
374.0,0.0858954
382.0,0.0891558
390.0,0.0916953
398.0,0.0944988
406.0,0.0966925
414.0,0.0991852
422.0,0.101806
430.0,0.104857
438.0,0.107782
446.0,0.110595
454.0,0.113072
462.0,0.115355
470.0,0.117659
478.0,0.119719
486.0,0.122165
494.0,0.124927
502.0,0.127818
510.0,0.130634
518.0,0.133663
526.0,0.136755
534.0,0.140345
542.0,0.144451
550.0,0.148822
558.0,0.153927
566.0,0.158789
574.0,0.163451
582.0,0.167652
590.0,0.171652
598.0,0.174865
606.0,0.177928
614.0,0.180671
622.0,0.18332
630.0,0.185748
638.0,0.188176
646.0,0.190455
654.0,0.192517
662.0,0.194497
670.0,0.196292
678.0,0.197911
686.0,0.199422
694.0,0.200919
702.0,0.202158
710.0,0.20331
718.0,0.204653
726.0,0.205972
734.0,0.20727
742.0,0.208785
750.0,0.210247
758.0,0.211915
766.0,0.213671
774.0,0.214916
782.0,0.216405
790.0,0.217799
798.0,0.219186
806.0,0.220533
814.0,0.221844
822.0,0.222946
830.0,0.223972
838.0,0.224986
846.0,0.226039
854.0,0.22706
862.0,0.227837
870.0,0.228559
878.0,0.229435
886.0,0.230429
894.0,0.231388
902.0,0.23212
910.0,0.232912
918.0,0.233563
926.0,0.234358
934.0,0.232898
942.0,0.233657
950.0,0.23438
958.0,0.23479
966.0,0.237148
974.0,0.237815
982.0,0.238173
990.0,0.238442
998.0,0.238561
1006.0,0.244172
1014.0,0.244593
1022.0,0.245057
1030.0,0.245783
1038.0,0.245649
1046.0,0.245583
1054.0,0.246363
1062.0,0.24688
1070.0,0.246372
1078.0,0.24703
1086.0,0.247589
1094.0,0.247985
1102.0,0.248201
1110.0,0.249062
1118.0,0.248835
1126.0,0.249327
1134.0,0.248242
1142.0,0.249842
1150.0,0.249804
1158.0,0.251076
1166.0,0.251309
1174.0,0.25198
1182.0,0.252345
1190.0,0.252988
1198.0,0.253461
1206.0,0.253652
1214.0,0.253936
1222.0,0.2537
1230.0,0.253977
1238.0,0.253614
1246.0,0.253928
1254.0,0.254604
1262.0,0.254405
1270.0,0.253764
1278.0,0.253968
1286.0,0.254359
1294.0,0.254547
1302.0,0.254681
1310.0,0.254862
1318.0,0.255014
1326.0,0.255529
1334.0,0.255841
1342.0,0.256708
1350.0,0.255915
1358.0,0.259062
1366.0,0.421535
1374.0,0.469281
1382.0,0.343249
1390.0,0.249116
1398.0,0.25951
1406.0,0.25251
1414.0,0.250199
1422.0,0.254796
1430.0,0.257711
1438.0,0.258398
1446.0,0.258127
1454.0,0.260127
1462.0,0.26074
1470.0,0.259204
1478.0,0.26225
1486.0,0.263296
1494.0,0.264235
1502.0,0.264325
1510.0,0.264552
1518.0,0.264738
1526.0,0.264822
1534.0,0.26471
1542.0,0.264419
1550.0,0.264804
1558.0,0.264522
1566.0,0.264125
1574.0,0.263895
1582.0,0.263584
1590.0,0.263599
1598.0,0.263308
1606.0,0.262362
1614.0,0.261732
1622.0,0.26107
1630.0,0.262031
1638.0,0.261076
1646.0,0.260436
1654.0,0.260307
1662.0,0.261127
1670.0,0.261326
1678.0,0.2613
1686.0,0.261186
1694.0,0.260762
1702.0,0.261281
1710.0,0.26151
1718.0,0.261016
1726.0,0.261024
1734.0,0.260386
1742.0,0.261858
1750.0,0.261757
1758.0,0.259798
1766.0,0.26058
1774.0,0.260711
1782.0,0.259934
1790.0,0.259861
1798.0,0.258511
1806.0,0.26968
1814.0,0.290512
1822.0,0.219073
1830.0,0.342118
1838.0,0.0
1846.0,0.0933155
1854.0,0.2494
1862.0,1.0
1870.0,0.480164
1878.0,1.0
1886.0,0.297066
1894.0,0.254776
1902.0,0.283131
1910.0,0.665092
1918.0,0.612497
1926.0,0.259956
1934.0,0.252502
1942.0,0.258744
1950.0,0.232856
1958.0,0.25987
1966.0,0.256635
1974.0,0.256471
1982.0,0.260004
1990.0,0.254447
1998.0,0.260997
2006.0,0.25942
2014.0,0.261387
2022.0,0.257117
2030.0,0.258791
2038.0,0.259388
2046.0,0.2649
2054.0,0.261198
2062.0,0.265656
2070.0,0.26861
2078.0,0.265831
2086.0,0.264156
2094.0,0.26804
2102.0,0.265506
2110.0,0.266344
2118.0,0.26746
2126.0,0.266211
2134.0,0.266216
2142.0,0.263769
2150.0,0.266531
2158.0,0.263608
2166.0,0.263046
2174.0,0.257728
2182.0,0.261084
2190.0,0.254802
2198.0,0.253911
2206.0,0.252163
2214.0,0.250703
2222.0,0.252476
2230.0,0.249735
2238.0,0.249214
2246.0,0.252665
2254.0,0.246404
2262.0,0.253034
2270.0,0.254218
2278.0,0.249778
2286.0,0.251136
2294.0,0.247668
2302.0,0.244568
2310.0,0.250565
2318.0,0.250203
2326.0,0.249458
2334.0,0.245454
2342.0,0.253251
2350.0,0.243888
2358.0,0.248211
2366.0,0.24544
2374.0,0.243327
2382.0,0.243784
2390.0,0.230174
2398.0,0.255417
2406.0,0.251095
2414.0,0.230432
2422.0,0.260318
2430.0,0.256333
2438.0,0.222357
2446.0,0.326634
2454.0,0.210247
2462.0,0.255336
2470.0,0.243376
2478.0,0.282669
2486.0,0.342627
2494.0,0.479278
2500.0,0.238978

File: AsphaltTrockenVerschmutzung2___corthum00453.txt
Wavelength (nm),Reflectance
350.0,0.0752681
358.0,0.0774667
366.0,0.0794328
374.0,0.0818209
382.0,0.0850561
390.0,0.0873845
398.0,0.0906948
406.0,0.0926829
414.0,0.0952331
422.0,0.0978962
430.0,0.100876
438.0,0.103887
446.0,0.106789
454.0,0.109312
462.0,0.111593
470.0,0.113837
478.0,0.11603
486.0,0.118549
494.0,0.12134
502.0,0.124145
510.0,0.127122
518.0,0.130072
526.0,0.13325
534.0,0.1369
542.0,0.141019
550.0,0.145491
558.0,0.1506
566.0,0.155514
574.0,0.160276
582.0,0.1646
590.0,0.168595
598.0,0.172012
606.0,0.175219
614.0,0.178157
622.0,0.180947
630.0,0.183619
638.0,0.186241
646.0,0.188684
654.0,0.190942
662.0,0.193208
670.0,0.195086
678.0,0.196968
686.0,0.198691
694.0,0.200374
702.0,0.201797
710.0,0.203203
718.0,0.204657
726.0,0.206092
734.0,0.207646
742.0,0.209337
750.0,0.210982
758.0,0.212909
766.0,0.214729
774.0,0.216185
782.0,0.217875
790.0,0.219455
798.0,0.220987
806.0,0.222428
814.0,0.223886
822.0,0.225304
830.0,0.226438
838.0,0.227603
846.0,0.228762
854.0,0.229931
862.0,0.230968
870.0,0.2318
878.0,0.232759
886.0,0.233855
894.0,0.234816
902.0,0.235772
910.0,0.236619
918.0,0.237389
926.0,0.238222
934.0,0.236452
942.0,0.237271
950.0,0.23839
958.0,0.238814
966.0,0.241281
974.0,0.241504
982.0,0.242522
990.0,0.243319
998.0,0.244404
1006.0,0.247331
1014.0,0.248152
1022.0,0.248558
1030.0,0.249515
1038.0,0.249381
1046.0,0.249764
1054.0,0.250818
1062.0,0.250932
1070.0,0.250532
1078.0,0.251108
1086.0,0.251627
1094.0,0.251695
1102.0,0.252117
1110.0,0.252609
1118.0,0.252185
1126.0,0.251514
1134.0,0.251905
1142.0,0.253814
1150.0,0.253622
1158.0,0.255087
1166.0,0.255447
1174.0,0.256232
1182.0,0.256647
1190.0,0.257255
1198.0,0.257962
1206.0,0.257842
1214.0,0.258259
1222.0,0.258202
1230.0,0.25846
1238.0,0.257917
1246.0,0.258095
1254.0,0.258581
1262.0,0.258623
1270.0,0.258061
1278.0,0.258243
1286.0,0.258484
1294.0,0.258616
1302.0,0.258659
1310.0,0.258879
1318.0,0.258723
1326.0,0.259468
1334.0,0.259076
1342.0,0.2608
1350.0,0.259856
1358.0,0.257032
1366.0,0.161137
1374.0,0.473705
1382.0,0.316086
1390.0,0.288353
1398.0,0.258308
1406.0,0.251173
1414.0,0.256576
1422.0,0.256978
1430.0,0.26025
1438.0,0.258625
1446.0,0.261012
1454.0,0.262847
1462.0,0.264981
1470.0,0.263813
1478.0,0.265912
1486.0,0.266263
1494.0,0.267817
1502.0,0.268268
1510.0,0.268338
1518.0,0.268473
1526.0,0.268683
1534.0,0.268583
1542.0,0.268371
1550.0,0.268391
1558.0,0.268487
1566.0,0.268103
1574.0,0.26798
1582.0,0.267265
1590.0,0.267193
1598.0,0.267423
1606.0,0.26653
1614.0,0.265509
1622.0,0.265486
1630.0,0.265911
1638.0,0.265151
1646.0,0.264706
1654.0,0.265368
1662.0,0.264898
1670.0,0.265691
1678.0,0.265226
1686.0,0.265582
1694.0,0.26627
1702.0,0.265878
1710.0,0.266108
1718.0,0.264846
1726.0,0.265409
1734.0,0.265262
1742.0,0.266631
1750.0,0.265787
1758.0,0.264615
1766.0,0.265096
1774.0,0.265135
1782.0,0.264215
1790.0,0.264239
1798.0,0.262397
1806.0,0.265382
1814.0,0.288454
1822.0,0.226279
1830.0,0.359113
1838.0,0.0
1846.0,0.399264
1854.0,0.335819
1862.0,1.0
1870.0,0.709787
1878.0,1.0
1886.0,0.195495
1894.0,0.23814
1902.0,0.32374
1910.0,0.800608
1918.0,0.398601
1926.0,0.309348
1934.0,0.265674
1942.0,0.273214
1950.0,0.257189
1958.0,0.270147
1966.0,0.260855
1974.0,0.264852
1982.0,0.263113
1990.0,0.260939
1998.0,0.269349
2006.0,0.280952
2014.0,0.267488
2022.0,0.268314
2030.0,0.265728
2038.0,0.264679
2046.0,0.271846
2054.0,0.270232
2062.0,0.268071
2070.0,0.275967
2078.0,0.269968
2086.0,0.271322
2094.0,0.274572
2102.0,0.272913
2110.0,0.274587
2118.0,0.272356
2126.0,0.271893
2134.0,0.271587
2142.0,0.272663
2150.0,0.271353
2158.0,0.266757
2166.0,0.269697
2174.0,0.263327
2182.0,0.266448
2190.0,0.262231
2198.0,0.257392
2206.0,0.257692
2214.0,0.257318
2222.0,0.262177
2230.0,0.254468
2238.0,0.256691
2246.0,0.260404
2254.0,0.253836
2262.0,0.262892
2270.0,0.262907
2278.0,0.260086
2286.0,0.25887
2294.0,0.259099
2302.0,0.252726
2310.0,0.257383
2318.0,0.255214
2326.0,0.250591
2334.0,0.251489
2342.0,0.26408
2350.0,0.255206
2358.0,0.264969
2366.0,0.256795
2374.0,0.257926
2382.0,0.257681
2390.0,0.244415
2398.0,0.263126
2406.0,0.268194
2414.0,0.237133
2422.0,0.25944
2430.0,0.261273
2438.0,0.247207
2446.0,0.330643
2454.0,0.239802
2462.0,0.27199
2470.0,0.259878
2478.0,0.365055
2486.0,0.240466
2494.0,0.314336
2500.0,0.424687