Folder: hyperspectral_benchmark/data/spectra_ascii (part 2)

File: AsphaltNassPfuetzen___corthum00445.txt
Wavelength (nm),Reflectance
350.0,0.0253617
358.0,0.0253798
366.0,0.0244929
374.0,0.0248748
382.0,0.024475
390.0,0.0244111
398.0,0.024646
406.0,0.0244936
414.0,0.0245915
422.0,0.0246717
430.0,0.025002
438.0,0.0253982
446.0,0.0256876
454.0,0.0258756
462.0,0.0261898
470.0,0.0265076
478.0,0.0268057
486.0,0.0271685
494.0,0.0275975
502.0,0.0281012
510.0,0.0285701
518.0,0.029168
526.0,0.0297274
534.0,0.0305179
542.0,0.0314243
550.0,0.0323765
558.0,0.0335894
566.0,0.0347326
574.0,0.035894
582.0,0.0368206
590.0,0.0378997
598.0,0.0386562
606.0,0.0394469
614.0,0.0401739
622.0,0.0409157
630.0,0.0417524
638.0,0.0423994
646.0,0.0431005
654.0,0.0438199
662.0,0.0446255
670.0,0.0453081
678.0,0.0460003
686.0,0.0469216
694.0,0.0477532
702.0,0.0483752
710.0,0.0491111
718.0,0.0504767
726.0,0.0511548
734.0,0.0517262
742.0,0.0524431
750.0,0.0533237
758.0,0.054197
766.0,0.0555659
774.0,0.0557372
782.0,0.0565316
790.0,0.0572975
798.0,0.0580089
806.0,0.0586782
814.0,0.0597558
822.0,0.0602881
830.0,0.0605883
838.0,0.0610286
846.0,0.0614126
854.0,0.0619729
862.0,0.062236
870.0,0.0627437
878.0,0.0631498
886.0,0.0636125
894.0,0.0640251
902.0,0.0644362
910.0,0.064932
918.0,0.0651747
926.0,0.0653403
934.0,0.0659233
942.0,0.06538
950.0,0.0645228
958.0,0.0646426
966.0,0.0645195
974.0,0.0645074
982.0,0.0643113
990.0,0.0643392
998.0,0.0646126
1006.0,0.06757
1014.0,0.068078
1022.0,0.0685322
1030.0,0.0692094
1038.0,0.070139
1046.0,0.0703459
1054.0,0.0711663
1062.0,0.0709714
1070.0,0.0712282
1078.0,0.0718177
1086.0,0.0716701
1094.0,0.0719335
1102.0,0.0724039
1110.0,0.0722042
1118.0,0.0733597
1126.0,0.0732509
1134.0,0.0725413
1142.0,0.0698602
1150.0,0.0682713
1158.0,0.0659821
1166.0,0.065306
1174.0,0.0650436
1182.0,0.0647763
1190.0,0.064636
1198.0,0.0644704
1206.0,0.0646105
1214.0,0.0648957
1222.0,0.0654358
1230.0,0.0655663
1238.0,0.0656903
1246.0,0.0659555
1254.0,0.0665759
1262.0,0.0673183
1270.0,0.0671582
1278.0,0.0673213
1286.0,0.0668361
1294.0,0.0663127
1302.0,0.0656998
1310.0,0.0649279
1318.0,0.0632386
1326.0,0.0618535
1334.0,0.0602578
1342.0,0.058364
1350.0,0.0586214
1358.0,0.056842
1366.0,0.0469101
1374.0,0.0234985
1382.0,0.0845365
1390.0,0.00736772
1398.0,0.0215057
1406.0,0.0228972
1414.0,0.0221058
1422.0,0.0193855
1430.0,0.0198329
1438.0,0.017415
1446.0,0.0173097
1454.0,0.0157455
1462.0,0.0149639
1470.0,0.0149697
1478.0,0.0153787
1486.0,0.0160299
1494.0,0.0162607
1502.0,0.017217
1510.0,0.0189385
1518.0,0.0201979
1526.0,0.021805
1534.0,0.0238936
1542.0,0.0257614
1550.0,0.0271229
1558.0,0.0287991
1566.0,0.0304229
1574.0,0.0322728
1582.0,0.0344015
1590.0,0.0351684
1598.0,0.0364226
1606.0,0.0379181
1614.0,0.0393092
1622.0,0.0394168
1630.0,0.0402848
1638.0,0.0412215
1646.0,0.0416261
1654.0,0.0424027
1662.0,0.0428584
1670.0,0.0429723
1678.0,0.043579
1686.0,0.0440543
1694.0,0.0444412
1702.0,0.0439024
1710.0,0.0431795
1718.0,0.0431044
1726.0,0.0423441
1734.0,0.0413478
1742.0,0.0409575
1750.0,0.0398191
1758.0,0.0385135
1766.0,0.0378109
1774.0,0.0370337
1782.0,0.0362683
1790.0,0.0364472
1798.0,0.0354648
1806.0,0.0507896
1814.0,0.060777
1822.0,0.0961658
1830.0,0.19442
1838.0,0.0
1846.0,0.0
1854.0,0.0
1862.0,0.285447
1870.0,0.29867
1878.0,0.232888
1886.0,0.159231
1894.0,0.100749
1902.0,0.0
1910.0,0.343698
1918.0,0.0988469
1926.0,0.0169656
1934.0,0.0337868
1942.0,0.0228806
1950.0,0.0164843
1958.0,0.0201761
1966.0,0.0135543
1974.0,0.00952912
1982.0,0.00650109
1990.0,0.00708153
1998.0,0.00679299
2006.0,0.0221972
2014.0,0.0021333
2022.0,0.0104996
2030.0,0.008552
2038.0,0.0109346
2046.0,0.00975572
2054.0,0.0104965
2062.0,0.0117776
2070.0,0.0099049
2078.0,0.0112962
2086.0,0.0146581
2094.0,0.0138872
2102.0,0.0163618
2110.0,0.0174236
2118.0,0.016432
2126.0,0.0168674
2134.0,0.0184031
2142.0,0.0195417
2150.0,0.0179706
2158.0,0.0210436
2166.0,0.0203876
2174.0,0.0218852
2182.0,0.0181749
2190.0,0.0177195
2198.0,0.0230494
2206.0,0.0248014
2214.0,0.022923
2222.0,0.0182092
2230.0,0.0214849
2238.0,0.022225
2246.0,0.0221114
2254.0,0.018991
2262.0,0.021992
2270.0,0.0218517
2278.0,0.0203711
2286.0,0.0199785
2294.0,0.0205767
2302.0,0.01706
2310.0,0.016308
2318.0,0.0147238
2326.0,0.0131692
2334.0,0.0164117
2342.0,0.0211734
2350.0,0.0163444
2358.0,0.0100232
2366.0,0.0199694
2374.0,0.0128348
2382.0,0.00944874
2390.0,0.0181283
2398.0,0.0180993
2406.0,0.0123143
2414.0,0.0146106
2422.0,0.0296513
2430.0,0.0
2438.0,0.00650654
2446.0,0.0052102
2454.0,0.0324953
2462.0,0.0138826
2470.0,0.0604985
2478.0,0.0372496
2486.0,0.12144
2494.0,0.219238
2500.0,0.0

File: AsphaltNassPfuetzen___corthum00446.txt
Wavelength (nm),Reflectance
350.0,0.0257122
358.0,0.0251485
366.0,0.0252381
374.0,0.0249025
382.0,0.0246944
390.0,0.0245568
398.0,0.0248906
406.0,0.0247524
414.0,0.0248004
422.0,0.0249493
430.0,0.0253653
438.0,0.0256198
446.0,0.0259416
454.0,0.026125
462.0,0.0264669
470.0,0.0266979
478.0,0.0270558
486.0,0.0274854
494.0,0.0277989
502.0,0.0283238
510.0,0.0288284
518.0,0.0293949
526.0,0.0299927
534.0,0.0307354
542.0,0.0316143
550.0,0.0325761
558.0,0.0337482
566.0,0.0348841
574.0,0.0359805
582.0,0.0369854
590.0,0.0380417
598.0,0.0388299
606.0,0.0395972
614.0,0.0403717
622.0,0.0411084
630.0,0.042003
638.0,0.0426553
646.0,0.0433913
654.0,0.0442153
662.0,0.0450009
670.0,0.0457359
678.0,0.0465066
686.0,0.0474812
694.0,0.0484022
702.0,0.0490929
710.0,0.0499377
718.0,0.0513765
726.0,0.052186
734.0,0.0528566
742.0,0.0536927
750.0,0.0546502
758.0,0.0556493
766.0,0.0571229
774.0,0.0574315
782.0,0.0583866
790.0,0.0592759
798.0,0.0600728
806.0,0.0608768
814.0,0.0621321
822.0,0.0626911
830.0,0.0631264
838.0,0.063666
846.0,0.0642787
854.0,0.0648323
862.0,0.0653274
870.0,0.0658179
878.0,0.0664069
886.0,0.0669856
894.0,0.0676108
902.0,0.0679876
910.0,0.0684179
918.0,0.06879
926.0,0.0688967
934.0,0.0691779
942.0,0.069035
950.0,0.0679605
958.0,0.067111
966.0,0.0665693
974.0,0.0674756
982.0,0.0673903
990.0,0.068067
998.0,0.0679312
1006.0,0.0714585
1014.0,0.0719738
1022.0,0.0725134
1030.0,0.073367
1038.0,0.0738181
1046.0,0.0746863
1054.0,0.0757611
1062.0,0.0752977
1070.0,0.0761706
1078.0,0.0761881
1086.0,0.0764695
1094.0,0.0767503
1102.0,0.0765158
1110.0,0.0765057
1118.0,0.0774889
1126.0,0.0783561
1134.0,0.0751466
1142.0,0.0724828
1150.0,0.0694693
1158.0,0.0676362
1166.0,0.0667494
1174.0,0.0665391
1182.0,0.0658423
1190.0,0.0656898
1198.0,0.0659372
1206.0,0.0659319
1214.0,0.0661697
1222.0,0.0664633
1230.0,0.0666688
1238.0,0.067063
1246.0,0.0671361
1254.0,0.0676817
1262.0,0.068554
1270.0,0.0689586
1278.0,0.068587
1286.0,0.0677413
1294.0,0.0672391
1302.0,0.066247
1310.0,0.064886
1318.0,0.0631606
1326.0,0.0611813
1334.0,0.0593364
1342.0,0.057727
1350.0,0.0575414
1358.0,0.0687832
1366.0,0.181526
1374.0,0.0456149
1382.0,0.0792247
1390.0,0.0604739
1398.0,0.029611
1406.0,0.0424016
1414.0,0.0228695
1422.0,0.0215911
1430.0,0.0195835
1438.0,0.0204898
1446.0,0.0177564
1454.0,0.0162755
1462.0,0.0153762
1470.0,0.0154192
1478.0,0.0155089
1486.0,0.0151533
1494.0,0.0158502
1502.0,0.0167686
1510.0,0.0177895
1518.0,0.0190664
1526.0,0.0205106
1534.0,0.0220038
1542.0,0.0234051
1550.0,0.0249036
1558.0,0.0262379
1566.0,0.0279501
1574.0,0.0296799
1582.0,0.0309901
1590.0,0.0323282
1598.0,0.0331838
1606.0,0.0342984
1614.0,0.0349836
1622.0,0.0363568
1630.0,0.0368528
1638.0,0.0372101
1646.0,0.0381421
1654.0,0.0384979
1662.0,0.0392399
1670.0,0.0394624
1678.0,0.039776
1686.0,0.0398485
1694.0,0.0401895
1702.0,0.0398169
1710.0,0.0399211
1718.0,0.038964
1726.0,0.0386521
1734.0,0.038005
1742.0,0.037969
1750.0,0.0358153
1758.0,0.0345261
1766.0,0.0335705
1774.0,0.0331211
1782.0,0.032694
1790.0,0.0330839
1798.0,0.0342438
1806.0,0.0477257
1814.0,0.0593351
1822.0,0.0501026
1830.0,0.178808
1838.0,0.0
1846.0,0.0
1854.0,0.0
1862.0,0.812535
1870.0,0.0
1878.0,0.0
1886.0,0.228046
1894.0,0.0459357
1902.0,0.0
1910.0,0.244998
1918.0,0.114588
1926.0,0.104487
1934.0,0.0489882
1942.0,0.0172417
1950.0,0.0112539
1958.0,0.00813037
1966.0,0.00745184
1974.0,0.00721881
1982.0,0.00697687
1990.0,0.00688033
1998.0,0.0078585
2006.0,0.0199943
2014.0,0.0260427
2022.0,0.0106794
2030.0,0.00998398
2038.0,0.00802838
2046.0,0.0102492
2054.0,0.0118451
2062.0,0.0124409
2070.0,0.0107461
2078.0,0.0121924
2086.0,0.0127933
2094.0,0.0152629
2102.0,0.0151989
2110.0,0.0153014
2118.0,0.0154108
2126.0,0.0161426
2134.0,0.0178211
2142.0,0.0170532
2150.0,0.0175687
2158.0,0.017997
2166.0,0.0215073
2174.0,0.0185444
2182.0,0.0192916
2190.0,0.0176328
2198.0,0.0224621
2206.0,0.018736
2214.0,0.0188114
2222.0,0.0179583
2230.0,0.0196746
2238.0,0.0216687
2246.0,0.0184298
2254.0,0.0205617
2262.0,0.0195009
2270.0,0.0177672
2278.0,0.0152284
2286.0,0.0166506
2294.0,0.0169504
2302.0,0.0121962
2310.0,0.0146872
2318.0,0.0143459
2326.0,0.015943
2334.0,0.0149731
2342.0,0.0148912
2350.0,0.00599768
2358.0,0.0116254
2366.0,0.0157969
2374.0,0.0252989
2382.0,0.020929
2390.0,0.0201362
2398.0,0.0178029
2406.0,0.0117663
2414.0,0.0134873
2422.0,0.0159927
2430.0,0.00419607
2438.0,0.0
2446.0,0.0
2454.0,0.0
2462.0,0.0185993
2470.0,0.0
2478.0,0.0448598
2486.0,0.0
2494.0,0.161229
2500.0,0.167917

File: AsphaltNassPfuetzen___corthum00447.txt
Wavelength (nm),Reflectance
350.0,0.0266521
358.0,0.0255465
366.0,0.0250298
374.0,0.0245068
382.0,0.0248565
390.0,0.0245681
398.0,0.0241922
406.0,0.0239485
414.0,0.0238679
422.0,0.0240637
430.0,0.0245006
438.0,0.0248051
446.0,0.025194
454.0,0.0255245
462.0,0.025826
470.0,0.0262643
478.0,0.0266493
486.0,0.0271236
494.0,0.0276204
502.0,0.0281522
510.0,0.0287377
518.0,0.0293506
526.0,0.0300137
534.0,0.0307947
542.0,0.0317328
550.0,0.0327364
558.0,0.033859
566.0,0.0351254
574.0,0.0361499
582.0,0.0371661
590.0,0.0382454
598.0,0.0390775
606.0,0.0398417
614.0,0.0406536
622.0,0.0414382
630.0,0.0424003
638.0,0.0431766
646.0,0.0440081
654.0,0.044907
662.0,0.0457723
670.0,0.0464845
678.0,0.0473297
686.0,0.0483283
694.0,0.0491351
702.0,0.0498418
710.0,0.0505418
718.0,0.0520248
726.0,0.0527411
734.0,0.0532577
742.0,0.0540518
750.0,0.0549088
758.0,0.0559314
766.0,0.057522
774.0,0.0576716
782.0,0.0585385
790.0,0.0594488
798.0,0.060285
806.0,0.0610682
814.0,0.0623119
822.0,0.0630114
830.0,0.0633172
838.0,0.0637849
846.0,0.0642553
854.0,0.0649559
862.0,0.0652302
870.0,0.065826
878.0,0.0664792
886.0,0.0669939
894.0,0.067643
902.0,0.0685427
910.0,0.068762
918.0,0.0691512
926.0,0.0691422
934.0,0.072127
942.0,0.0702432
950.0,0.0693512
958.0,0.067771
966.0,0.0666513
974.0,0.0660856
982.0,0.066158
990.0,0.066538
998.0,0.066345
1006.0,0.0673677
1014.0,0.0677327
1022.0,0.0687093
1030.0,0.0702169
1038.0,0.0710371
1046.0,0.0712869
1054.0,0.0722285
1062.0,0.0727839
1070.0,0.0731052
1078.0,0.0734076
1086.0,0.0728321
1094.0,0.0730883
1102.0,0.0732022
1110.0,0.0729892
1118.0,0.0732953
1126.0,0.0736539
1134.0,0.0710088
1142.0,0.0675475
1150.0,0.0633956
1158.0,0.0604135
1166.0,0.0590956
1174.0,0.058633
1182.0,0.0583369
1190.0,0.057937
1198.0,0.0577433
1206.0,0.0579767
1214.0,0.0582278
1222.0,0.0583468
1230.0,0.0584642
1238.0,0.0590525
1246.0,0.0597337
1254.0,0.0601529
1262.0,0.0608044
1270.0,0.0609617
1278.0,0.0605796
1286.0,0.0598437
1294.0,0.0594111
1302.0,0.0581838
1310.0,0.0564596
1318.0,0.0543556
1326.0,0.0519357
1334.0,0.0495472
1342.0,0.0470098
1350.0,0.0457289
1358.0,0.0568059
1366.0,0.109142
1374.0,0.110115
1382.0,0.0687853
1390.0,0.0435016
1398.0,0.0368131
1406.0,0.0350521
1414.0,0.0224776
1422.0,0.0192841
1430.0,0.0160887
1438.0,0.0146418
1446.0,0.0141895
1454.0,0.0126166
1462.0,0.0123867
1470.0,0.0116854
1478.0,0.0125637
1486.0,0.0121005
1494.0,0.0121783
1502.0,0.0125517
1510.0,0.0128161
1518.0,0.0136914
1526.0,0.0147417
1534.0,0.015929
1542.0,0.0166937
1550.0,0.0180966
1558.0,0.0187248
1566.0,0.0197412
1574.0,0.0208525
1582.0,0.0217083
1590.0,0.0227353
1598.0,0.0239285
1606.0,0.0251936
1614.0,0.0254245
1622.0,0.0262205
1630.0,0.0270261
1638.0,0.0275499
1646.0,0.0282818
1654.0,0.0283665
1662.0,0.0291109
1670.0,0.0296479
1678.0,0.0292783
1686.0,0.0292803
1694.0,0.0293123
1702.0,0.029447
1710.0,0.0297117
1718.0,0.0289546
1726.0,0.0278076
1734.0,0.0273109
1742.0,0.0261798
1750.0,0.0255821
1758.0,0.0246933
1766.0,0.0246818
1774.0,0.0239597
1782.0,0.0233188
1790.0,0.0238411
1798.0,0.026017
1806.0,0.0353377
1814.0,0.061741
1822.0,0.0543347
1830.0,0.0517713
1838.0,0.0
1846.0,0.0
1854.0,0.0
1862.0,0.649888
1870.0,0.496319
1878.0,0.423985
1886.0,0.150141
1894.0,0.0768836
1902.0,0.0
1910.0,0.0476343
1918.0,0.0235511
1926.0,0.0216898
1934.0,0.0310324
1942.0,0.014139
1950.0,0.0260813
1958.0,0.021962
1966.0,0.0126099
1974.0,0.00630072
1982.0,0.00367775
1990.0,0.00705323
1998.0,0.011237
2006.0,0.0181752
2014.0,0.0114108
2022.0,0.00962544
2030.0,0.00478267
2038.0,0.00580737
2046.0,0.0068047
2054.0,0.0124596
2062.0,0.0111901
2070.0,0.00565582
2078.0,0.010976
2086.0,0.00909121
2094.0,0.0125512
2102.0,0.0108777
2110.0,0.0111408
2118.0,0.0122135
2126.0,0.0140368
2134.0,0.0124566
2142.0,0.0126558
2150.0,0.0135478
2158.0,0.0145955
2166.0,0.0144292
2174.0,0.0149777
2182.0,0.013362
2190.0,0.0131765
2198.0,0.0137604
2206.0,0.0136155
2214.0,0.0133492
2222.0,0.0123812
2230.0,0.0147501
2238.0,0.0106182
2246.0,0.0123047
2254.0,0.0163863
2262.0,0.0117332
2270.0,0.0130607
2278.0,0.0143068
2286.0,0.0146177
2294.0,0.016025
2302.0,0.014315
2310.0,0.0139848
2318.0,0.0106827
2326.0,0.0129313
2334.0,0.0095097
2342.0,0.0159185
2350.0,0.0147396
2358.0,0.0139705
2366.0,0.0146606
2374.0,0.00779693
2382.0,0.0168251
2390.0,0.0144047
2398.0,0.0132155
2406.0,0.0123062
2414.0,0.00113487
2422.0,0.0177928
2430.0,0.0153243
2438.0,0.00719737
2446.0,0.0
2454.0,0.019487
2462.0,0.0138906
2470.0,0.0295468
2478.0,0.0348422
2486.0,0.102578
2494.0,0.28161
2500.0,0.117086

File: AsphaltTrockenVerschmutzung1___corthum00392.txt
Wavelength (nm),Reflectance
350.0,0.0748631
358.0,0.0768243
366.0,0.0792767
374.0,0.081926
382.0,0.0851829
390.0,0.0884461
398.0,0.0911808
406.0,0.0938109
414.0,0.0965152
422.0,0.0992423
430.0,0.102511
438.0,0.105765
446.0,0.108743
454.0,0.11147
462.0,0.113894
470.0,0.116121
478.0,0.118323
486.0,0.121092
494.0,0.124279
502.0,0.1275
510.0,0.130845
518.0,0.134384
526.0,0.138121
534.0,0.142427
542.0,0.147372
550.0,0.153132
558.0,0.159614
566.0,0.166144
574.0,0.172502
582.0,0.178302
590.0,0.183242
598.0,0.187492
606.0,0.191251
614.0,0.194548
622.0,0.197527
630.0,0.200484
638.0,0.20329
646.0,0.205954
654.0,0.208567
662.0,0.211245
670.0,0.213714
678.0,0.216112
686.0,0.218452
694.0,0.2207
702.0,0.222969
710.0,0.225225
718.0,0.227431
726.0,0.229788
734.0,0.232224
742.0,0.234623
750.0,0.237091
758.0,0.239655
766.0,0.241641
774.0,0.243956
782.0,0.245995
790.0,0.248034
798.0,0.250019
806.0,0.251896
814.0,0.253567
822.0,0.255363
830.0,0.257022
838.0,0.258709
846.0,0.260209
854.0,0.261762
862.0,0.263266
870.0,0.264613
878.0,0.266222
886.0,0.267719
894.0,0.26886
902.0,0.270198
910.0,0.271644
918.0,0.273159
926.0,0.274252
934.0,0.272074
942.0,0.275004
950.0,0.276187
958.0,0.278972
966.0,0.280631
974.0,0.28235
982.0,0.284327
990.0,0.284152
998.0,0.285636
1006.0,0.289991
1014.0,0.291091
1022.0,0.291823
1030.0,0.291923
1038.0,0.293023
1046.0,0.293322
1054.0,0.294349
1062.0,0.294569
1070.0,0.295978
1078.0,0.295864
1086.0,0.296487
1094.0,0.297686
1102.0,0.297371
1110.0,0.298282
1118.0,0.297537
1126.0,0.297121
1134.0,0.298667
1142.0,0.301491
1150.0,0.300855
1158.0,0.303813
1166.0,0.303972
1174.0,0.305624
1182.0,0.306112
1190.0,0.306814
1198.0,0.307678
1206.0,0.307971
1214.0,0.30843
1222.0,0.308488
1230.0,0.30899
1238.0,0.30909
1246.0,0.308898
1254.0,0.309433
1262.0,0.309108
1270.0,0.309417
1278.0,0.310335
1286.0,0.310464
1294.0,0.310777
1302.0,0.311373
1310.0,0.311383
1318.0,0.31196
1326.0,0.31205
1334.0,0.31196
1342.0,0.312893
1350.0,0.308187
1358.0,0.348387
1366.0,0.339973
1374.0,0.377103
1382.0,0.225292
1390.0,0.282126
1398.0,0.310706
1406.0,0.304626
1414.0,0.30731
1422.0,0.31048
1430.0,0.3135
1438.0,0.313308
1446.0,0.315924
1454.0,0.316408
1462.0,0.316793
1470.0,0.3184
1478.0,0.31969
1486.0,0.321021
1494.0,0.321958
1502.0,0.322779
1510.0,0.32321
1518.0,0.323907
1526.0,0.324684
1534.0,0.325062
1542.0,0.324901
1550.0,0.324885
1558.0,0.324325
1566.0,0.324258
1574.0,0.324203
1582.0,0.325232
1590.0,0.325129
1598.0,0.324331
1606.0,0.324885
1614.0,0.324435
1622.0,0.324605
1630.0,0.323653
1638.0,0.323545
1646.0,0.322824
1654.0,0.32316
1662.0,0.32334
1670.0,0.321717
1678.0,0.323597
1686.0,0.325091
1694.0,0.325831
1702.0,0.325382
1710.0,0.326363
1718.0,0.325817
1726.0,0.325262
1734.0,0.326651
1742.0,0.325596
1750.0,0.324851
1758.0,0.325132
1766.0,0.323815
1774.0,0.325497
1782.0,0.324184
1790.0,0.325026
1798.0,0.325486
1806.0,0.322718
1814.0,0.348967
1822.0,0.315539
1830.0,0.312092
1838.0,1.0
1846.0,0.0
1854.0,0.12855
1862.0,0.498344
1870.0,1.0
1878.0,0.736711
1886.0,0.278315
1894.0,0.542712
1902.0,0.290179
1910.0,0.292944
1918.0,0.334301
1926.0,0.240851
1934.0,0.356932
1942.0,0.318746
1950.0,0.318447
1958.0,0.314478
1966.0,0.3257
1974.0,0.318886
1982.0,0.319292
1990.0,0.322691
1998.0,0.323925
2006.0,0.327864
2014.0,0.336924
2022.0,0.328988
2030.0,0.327132
2038.0,0.329
2046.0,0.330586
2054.0,0.328986
2062.0,0.32878
2070.0,0.331803
2078.0,0.335896
2086.0,0.335927
2094.0,0.333014
2102.0,0.335943
2110.0,0.336716
2118.0,0.336296
2126.0,0.339133
2134.0,0.337325
2142.0,0.339055
2150.0,0.334602
2158.0,0.334213
2166.0,0.332966
2174.0,0.331016
2182.0,0.331109
2190.0,0.328838
2198.0,0.326649
2206.0,0.321818
2214.0,0.32112
2222.0,0.321938
2230.0,0.321954
2238.0,0.322986
2246.0,0.322777
2254.0,0.317494
2262.0,0.323298
2270.0,0.320715
2278.0,0.318198
2286.0,0.3225
2294.0,0.320793
2302.0,0.319599
2310.0,0.322319
2318.0,0.316134
2326.0,0.315158
2334.0,0.324725
2342.0,0.322404
2350.0,0.319756
2358.0,0.323105
2366.0,0.325039
2374.0,0.329578
2382.0,0.327547
2390.0,0.307314
2398.0,0.324964
2406.0,0.315298
2414.0,0.354752
2422.0,0.329744
2430.0,0.305959
2438.0,0.291623
2446.0,0.305133
2454.0,0.261567
2462.0,0.305942
2470.0,0.306407
2478.0,0.312044
2486.0,0.362549
2494.0,0.211932
2500.0,0.296268

File: AsphaltTrockenVerschmutzung1___corthum00393.txt
Wavelength (nm),Reflectance
350.0,0.0796676
358.0,0.0814214
366.0,0.084377
374.0,0.0868202
382.0,0.0901716
390.0,0.0937122
398.0,0.0966937
406.0,0.0993035
414.0,0.102171
422.0,0.105181
430.0,0.108569
438.0,0.111907
446.0,0.115116
454.0,0.11795
462.0,0.120395
470.0,0.122665
478.0,0.124995
486.0,0.127862
494.0,0.131171
502.0,0.13445
510.0,0.137923
518.0,0.141644
526.0,0.145441
534.0,0.14987
542.0,0.155016
550.0,0.16074
558.0,0.167345
566.0,0.173823
574.0,0.180212
582.0,0.185956
590.0,0.19094
598.0,0.19518
606.0,0.198848
614.0,0.202211
622.0,0.205237
630.0,0.208278
638.0,0.211095
646.0,0.213819
654.0,0.216524
662.0,0.219214
670.0,0.221668
678.0,0.224161
686.0,0.226509
694.0,0.228822
702.0,0.231089
710.0,0.233509
718.0,0.235766
726.0,0.238119
734.0,0.240576
742.0,0.243009
750.0,0.245509
758.0,0.248048
766.0,0.250294
774.0,0.252533
782.0,0.254646
790.0,0.256729
798.0,0.258714
806.0,0.260544
814.0,0.262371
822.0,0.264196
830.0,0.265779
838.0,0.267515
846.0,0.268961
854.0,0.270523
862.0,0.272032
870.0,0.273324
878.0,0.274824
886.0,0.27637
894.0,0.27753
902.0,0.278916
910.0,0.280072
918.0,0.282053
926.0,0.282858
934.0,0.281512
942.0,0.283741
950.0,0.28458
958.0,0.287376
966.0,0.289118
974.0,0.290296
982.0,0.292495
990.0,0.293157
998.0,0.294182
1006.0,0.299602
1014.0,0.300673
1022.0,0.300449
1030.0,0.301721
1038.0,0.302213
1046.0,0.302649
1054.0,0.303657
1062.0,0.304024
1070.0,0.305251
1078.0,0.30518
1086.0,0.306145
1094.0,0.307549
1102.0,0.307161
1110.0,0.307226
1118.0,0.307636
1126.0,0.305907
1134.0,0.307653
1142.0,0.310581
1150.0,0.310619
1158.0,0.312777
1166.0,0.31363
1174.0,0.314895
1182.0,0.315253
1190.0,0.316023
1198.0,0.316941
1206.0,0.317209
1214.0,0.318177
1222.0,0.317652
1230.0,0.318368
1238.0,0.318258
1246.0,0.318176
1254.0,0.3185
1262.0,0.318259
1270.0,0.318649
1278.0,0.319926
1286.0,0.319583
1294.0,0.319967
1302.0,0.320562
1310.0,0.320282
1318.0,0.321568
1326.0,0.321288
1334.0,0.321685
1342.0,0.322472
1350.0,0.31783
1358.0,0.341316
1366.0,0.249388
1374.0,0.355365
1382.0,0.314829
1390.0,0.275776
1398.0,0.311228
1406.0,0.309535
1414.0,0.315759
1422.0,0.319585
1430.0,0.323036
1438.0,0.324736
1446.0,0.324268
1454.0,0.326902
1462.0,0.327243
1470.0,0.328142
1478.0,0.328657
1486.0,0.330859
1494.0,0.332534
1502.0,0.332692
1510.0,0.333094
1518.0,0.332988
1526.0,0.333965
1534.0,0.333482
1542.0,0.334284
1550.0,0.334213
1558.0,0.333913
1566.0,0.333876
1574.0,0.333016
1582.0,0.334032
1590.0,0.333927
1598.0,0.333252
1606.0,0.333696
1614.0,0.332985
1622.0,0.332723
1630.0,0.332305
1638.0,0.331798
1646.0,0.33092
1654.0,0.331589
1662.0,0.331065
1670.0,0.330463
1678.0,0.331833
1686.0,0.333232
1694.0,0.333363
1702.0,0.333773
1710.0,0.334353
1718.0,0.333944
1726.0,0.334329
1734.0,0.334883
1742.0,0.333331
1750.0,0.333393
1758.0,0.333531
1766.0,0.332908
1774.0,0.333575
1782.0,0.332315
1790.0,0.33401
1798.0,0.331719
1806.0,0.333512
1814.0,0.333239
1822.0,0.331897
1830.0,0.364829
1838.0,0.205768
1846.0,0.0
1854.0,0.168175
1862.0,0.46514
1870.0,1.0
1878.0,0.562444
1886.0,0.384893
1894.0,0.450102
1902.0,0.483975
1910.0,0.153296
1918.0,0.317477
1926.0,0.249748
1934.0,0.282752
1942.0,0.307169
1950.0,0.316605
1958.0,0.335918
1966.0,0.324648
1974.0,0.325618
1982.0,0.327601
1990.0,0.325298
1998.0,0.325627
2006.0,0.338936
2014.0,0.324443
2022.0,0.33303
2030.0,0.333559
2038.0,0.335364
2046.0,0.3371
2054.0,0.337547
2062.0,0.336492
2070.0,0.337289
2078.0,0.341544
2086.0,0.342369
2094.0,0.341325
2102.0,0.341699
2110.0,0.344965
2118.0,0.340067
2126.0,0.344703
2134.0,0.343139
2142.0,0.344457
2150.0,0.340508
2158.0,0.340392
2166.0,0.338936
2174.0,0.334381
2182.0,0.334806
2190.0,0.331639
2198.0,0.331692
2206.0,0.327551
2214.0,0.324572
2222.0,0.329196
2230.0,0.328768
2238.0,0.327994
2246.0,0.324418
2254.0,0.32266
2262.0,0.329359
2270.0,0.328657
2278.0,0.322837
2286.0,0.327671
2294.0,0.325756
2302.0,0.319616
2310.0,0.331358
2318.0,0.316823
2326.0,0.320526
2334.0,0.328325
2342.0,0.325103
2350.0,0.319937
2358.0,0.332019
2366.0,0.324898
2374.0,0.330689
2382.0,0.333609
2390.0,0.326337
2398.0,0.332448
2406.0,0.307977
2414.0,0.353589
2422.0,0.31261
2430.0,0.302266
2438.0,0.307748
2446.0,0.277142
2454.0,0.31555
2462.0,0.320359
2470.0,0.310767
2478.0,0.285001
2486.0,0.364193
2494.0,0.352793
2500.0,0.433399