Folder: hyperspectral_benchmark/data/spectra_ascii (part 3)

File: AsphaltTrockenVerschmutzung1___corthum00394.txt
Wavelength (nm),Reflectance
350.0,0.0784702
358.0,0.0799907
366.0,0.0826872
374.0,0.085356
382.0,0.0884411
390.0,0.0918131
398.0,0.0945525
406.0,0.097115
414.0,0.0998376
422.0,0.102634
430.0,0.105822
438.0,0.108997
446.0,0.111955
454.0,0.114644
462.0,0.117005
470.0,0.119186
478.0,0.121465
486.0,0.124254
494.0,0.127263
502.0,0.130519
510.0,0.133744
518.0,0.137289
526.0,0.140907
534.0,0.14509
542.0,0.149854
550.0,0.155166
558.0,0.161226
566.0,0.167172
574.0,0.173019
582.0,0.178388
590.0,0.183101
598.0,0.18695
606.0,0.190502
614.0,0.193772
622.0,0.19675
630.0,0.199694
638.0,0.202516
646.0,0.205259
654.0,0.207947
662.0,0.210701
670.0,0.213187
678.0,0.215777
686.0,0.218209
694.0,0.220655
702.0,0.222989
710.0,0.225362
718.0,0.227827
726.0,0.23032
734.0,0.232838
742.0,0.235442
750.0,0.238077
758.0,0.240812
766.0,0.243469
774.0,0.24574
782.0,0.24808
790.0,0.250453
798.0,0.252786
806.0,0.254918
814.0,0.257097
822.0,0.259118
830.0,0.261109
838.0,0.262892
846.0,0.264654
854.0,0.266589
862.0,0.268323
870.0,0.269877
878.0,0.271623
886.0,0.273361
894.0,0.27488
902.0,0.276649
910.0,0.2783
918.0,0.280063
926.0,0.281326
934.0,0.280491
942.0,0.283539
950.0,0.283705
958.0,0.286384
966.0,0.288801
974.0,0.28987
982.0,0.292099
990.0,0.29296
998.0,0.293773
1006.0,0.30008
1014.0,0.301142
1022.0,0.301329
1030.0,0.302912
1038.0,0.302424
1046.0,0.303568
1054.0,0.303997
1062.0,0.304867
1070.0,0.306173
1078.0,0.306813
1086.0,0.307382
1094.0,0.308956
1102.0,0.308818
1110.0,0.309353
1118.0,0.309376
1126.0,0.310138
1134.0,0.31086
1142.0,0.312919
1150.0,0.31293
1158.0,0.31516
1166.0,0.315632
1174.0,0.316653
1182.0,0.317594
1190.0,0.318143
1198.0,0.319103
1206.0,0.31945
1214.0,0.320333
1222.0,0.320194
1230.0,0.320705
1238.0,0.320617
1246.0,0.320455
1254.0,0.321045
1262.0,0.320814
1270.0,0.321372
1278.0,0.322358
1286.0,0.322471
1294.0,0.322687
1302.0,0.323586
1310.0,0.323837
1318.0,0.324732
1326.0,0.324931
1334.0,0.324848
1342.0,0.325936
1350.0,0.323453
1358.0,0.339666
1366.0,0.245868
1374.0,0.407577
1382.0,0.276254
1390.0,0.277555
1398.0,0.305177
1406.0,0.309102
1414.0,0.322389
1422.0,0.325637
1430.0,0.327548
1438.0,0.328024
1446.0,0.328195
1454.0,0.329253
1462.0,0.330194
1470.0,0.331625
1478.0,0.331904
1486.0,0.33405
1494.0,0.334862
1502.0,0.334536
1510.0,0.335174
1518.0,0.335248
1526.0,0.33599
1534.0,0.336268
1542.0,0.336633
1550.0,0.335948
1558.0,0.336121
1566.0,0.335981
1574.0,0.335508
1582.0,0.336358
1590.0,0.336347
1598.0,0.336399
1606.0,0.33576
1614.0,0.335913
1622.0,0.33542
1630.0,0.334788
1638.0,0.334353
1646.0,0.333661
1654.0,0.333681
1662.0,0.333403
1670.0,0.332698
1678.0,0.334002
1686.0,0.335139
1694.0,0.335381
1702.0,0.335657
1710.0,0.33608
1718.0,0.335324
1726.0,0.33595
1734.0,0.335917
1742.0,0.33565
1750.0,0.335345
1758.0,0.336101
1766.0,0.336605
1774.0,0.336154
1782.0,0.335854
1790.0,0.337401
1798.0,0.334905
1806.0,0.355823
1814.0,0.340758
1822.0,0.380021
1830.0,0.463437
1838.0,0.595877
1846.0,0.0
1854.0,0.110754
1862.0,0.764535
1870.0,1.0
1878.0,0.896978
1886.0,0.359347
1894.0,0.488657
1902.0,0.393889
1910.0,0.34628
1918.0,0.398083
1926.0,0.315892
1934.0,0.353126
1942.0,0.315888
1950.0,0.316608
1958.0,0.341655
1966.0,0.331178
1974.0,0.327713
1982.0,0.32632
1990.0,0.329735
1998.0,0.331735
2006.0,0.342942
2014.0,0.340062
2022.0,0.339684
2030.0,0.332086
2038.0,0.336295
2046.0,0.335121
2054.0,0.339993
2062.0,0.337208
2070.0,0.337544
2078.0,0.342088
2086.0,0.343078
2094.0,0.340399
2102.0,0.343703
2110.0,0.345587
2118.0,0.339983
2126.0,0.34538
2134.0,0.343115
2142.0,0.344899
2150.0,0.34079
2158.0,0.339352
2166.0,0.33712
2174.0,0.333627
2182.0,0.334755
2190.0,0.331915
2198.0,0.33123
2206.0,0.328015
2214.0,0.325381
2222.0,0.328104
2230.0,0.329508
2238.0,0.330569
2246.0,0.327958
2254.0,0.326044
2262.0,0.326736
2270.0,0.325171
2278.0,0.325175
2286.0,0.327856
2294.0,0.3269
2302.0,0.323701
2310.0,0.326682
2318.0,0.325427
2326.0,0.326946
2334.0,0.333415
2342.0,0.330085
2350.0,0.324753
2358.0,0.328283
2366.0,0.325712
2374.0,0.342244
2382.0,0.329441
2390.0,0.312283
2398.0,0.323715
2406.0,0.322113
2414.0,0.34145
2422.0,0.3208
2430.0,0.323124
2438.0,0.290238
2446.0,0.361469
2454.0,0.300673
2462.0,0.315375
2470.0,0.320508
2478.0,0.368959
2486.0,0.5725
2494.0,0.396412
2500.0,0.315695

File: AsphaltTrockenVerschmutzung1___corthum00395.txt
Wavelength (nm),Reflectance
350.0,0.07727
358.0,0.0788575
366.0,0.0810706
374.0,0.0837835
382.0,0.0867325
390.0,0.0898429
398.0,0.0923573
406.0,0.0946938
414.0,0.097203
422.0,0.0998357
430.0,0.102747
438.0,0.105786
446.0,0.108513
454.0,0.111052
462.0,0.113233
470.0,0.115252
478.0,0.117414
486.0,0.120025
494.0,0.122895
502.0,0.125912
510.0,0.129003
518.0,0.132379
526.0,0.13582
534.0,0.139826
542.0,0.144339
550.0,0.149395
558.0,0.155116
566.0,0.160647
574.0,0.166093
582.0,0.171127
590.0,0.175555
598.0,0.179209
606.0,0.182509
614.0,0.185616
622.0,0.188471
630.0,0.191394
638.0,0.194094
646.0,0.196722
654.0,0.199332
662.0,0.201893
670.0,0.204393
678.0,0.206774
686.0,0.209141
694.0,0.211453
702.0,0.21369
710.0,0.21589
718.0,0.218354
726.0,0.220747
734.0,0.223044
742.0,0.225445
750.0,0.228003
758.0,0.230661
766.0,0.233281
774.0,0.235403
782.0,0.237656
790.0,0.240006
798.0,0.242246
806.0,0.244299
814.0,0.246547
822.0,0.248541
830.0,0.250354
838.0,0.252231
846.0,0.253796
854.0,0.255651
862.0,0.257364
870.0,0.258768
878.0,0.260584
886.0,0.262227
894.0,0.263804
902.0,0.265565
910.0,0.267135
918.0,0.268664
926.0,0.270204
934.0,0.268926
942.0,0.272161
950.0,0.272363
958.0,0.27525
966.0,0.276834
974.0,0.277849
982.0,0.279818
990.0,0.280492
998.0,0.281484
1006.0,0.286822
1014.0,0.28779
1022.0,0.28797
1030.0,0.288747
1038.0,0.289429
1046.0,0.290065
1054.0,0.291
1062.0,0.291579
1070.0,0.292914
1078.0,0.293333
1086.0,0.293623
1094.0,0.295241
1102.0,0.294949
1110.0,0.295921
1118.0,0.296027
1126.0,0.29628
1134.0,0.29719
1142.0,0.299922
1150.0,0.299544
1158.0,0.301642
1166.0,0.301953
1174.0,0.303008
1182.0,0.303562
1190.0,0.304153
1198.0,0.304848
1206.0,0.305453
1214.0,0.306158
1222.0,0.30587
1230.0,0.306451
1238.0,0.306029
1246.0,0.306143
1254.0,0.30635
1262.0,0.306173
1270.0,0.306714
1278.0,0.307681
1286.0,0.307814
1294.0,0.308116
1302.0,0.30913
1310.0,0.308922
1318.0,0.309417
1326.0,0.309692
1334.0,0.310037
1342.0,0.3118
1350.0,0.309095
1358.0,0.357439
1366.0,0.427008
1374.0,0.367233
1382.0,0.296171
1390.0,0.286408
1398.0,0.304413
1406.0,0.3136
1414.0,0.308419
1422.0,0.309659
1430.0,0.312042
1438.0,0.313674
1446.0,0.314542
1454.0,0.314555
1462.0,0.314564
1470.0,0.315155
1478.0,0.316759
1486.0,0.318276
1494.0,0.318849
1502.0,0.318804
1510.0,0.319484
1518.0,0.319756
1526.0,0.320174
1534.0,0.320266
1542.0,0.320706
1550.0,0.320153
1558.0,0.31985
1566.0,0.31985
1574.0,0.31964
1582.0,0.32072
1590.0,0.320752
1598.0,0.320274
1606.0,0.320265
1614.0,0.319575
1622.0,0.319303
1630.0,0.31862
1638.0,0.318377
1646.0,0.318187
1654.0,0.317964
1662.0,0.317587
1670.0,0.317088
1678.0,0.318071
1686.0,0.31918
1694.0,0.319295
1702.0,0.319478
1710.0,0.319686
1718.0,0.319765
1726.0,0.319475
1734.0,0.320162
1742.0,0.318974
1750.0,0.318967
1758.0,0.319238
1766.0,0.319575
1774.0,0.319452
1782.0,0.318395
1790.0,0.319723
1798.0,0.319841
1806.0,0.327385
1814.0,0.318367
1822.0,0.320925
1830.0,0.405618
1838.0,0.454099
1846.0,0.0
1854.0,0.0357304
1862.0,0.5557
1870.0,0.775611
1878.0,0.65394
1886.0,0.286222
1894.0,0.434551
1902.0,0.143345
1910.0,0.223053
1918.0,0.318534
1926.0,0.299746
1934.0,0.287773
1942.0,0.304202
1950.0,0.300876
1958.0,0.306451
1966.0,0.312099
1974.0,0.307254
1982.0,0.308346
1990.0,0.308386
1998.0,0.306902
2006.0,0.325508
2014.0,0.320345
2022.0,0.316568
2030.0,0.317344
2038.0,0.316351
2046.0,0.318415
2054.0,0.317996
2062.0,0.319631
2070.0,0.322416
2078.0,0.324163
2086.0,0.324686
2094.0,0.320517
2102.0,0.323435
2110.0,0.324685
2118.0,0.32179
2126.0,0.325224
2134.0,0.32448
2142.0,0.321866
2150.0,0.322876
2158.0,0.322497
2166.0,0.319713
2174.0,0.315665
2182.0,0.315416
2190.0,0.311612
2198.0,0.313797
2206.0,0.30794
2214.0,0.306991
2222.0,0.309228
2230.0,0.308801
2238.0,0.307131
2246.0,0.310599
2254.0,0.306335
2262.0,0.308681
2270.0,0.306424
2278.0,0.30192
2286.0,0.305371
2294.0,0.3042
2302.0,0.298899
2310.0,0.3088
2318.0,0.300198
2326.0,0.30349
2334.0,0.305944
2342.0,0.305115
2350.0,0.295583
2358.0,0.310317
2366.0,0.308488
2374.0,0.323284
2382.0,0.305395
2390.0,0.300373
2398.0,0.313058
2406.0,0.288075
2414.0,0.31642
2422.0,0.278645
2430.0,0.288225
2438.0,0.279487
2446.0,0.324199
2454.0,0.260482
2462.0,0.256531
2470.0,0.265338
2478.0,0.342045
2486.0,0.243855
2494.0,0.213595
2500.0,0.26446

File: AsphaltTrockenVerschmutzung1___corthum00396.txt
Wavelength (nm),Reflectance
350.0,0.0681927
358.0,0.0700799
366.0,0.0721414
374.0,0.074426
382.0,0.0773337
390.0,0.080017
398.0,0.0822381
406.0,0.0845662
414.0,0.0867808
422.0,0.0893083
430.0,0.0918927
438.0,0.094581
446.0,0.0971637
454.0,0.0995113
462.0,0.10153
470.0,0.103437
478.0,0.105399
486.0,0.107728
494.0,0.110403
502.0,0.113134
510.0,0.115936
518.0,0.119026
526.0,0.12222
534.0,0.125928
542.0,0.130132
550.0,0.134791
558.0,0.140298
566.0,0.145594
574.0,0.150999
582.0,0.155784
590.0,0.160163
598.0,0.163767
606.0,0.167095
614.0,0.170194
622.0,0.173109
630.0,0.176004
638.0,0.178696
646.0,0.181383
654.0,0.184047
662.0,0.18661
670.0,0.189112
678.0,0.191584
686.0,0.193994
694.0,0.19643
702.0,0.198783
710.0,0.201036
718.0,0.203635
726.0,0.20605
734.0,0.208398
742.0,0.210853
750.0,0.213479
758.0,0.216217
766.0,0.218941
774.0,0.22105
782.0,0.223409
790.0,0.225804
798.0,0.228176
806.0,0.23036
814.0,0.232754
822.0,0.234925
830.0,0.236842
838.0,0.238772
846.0,0.240488
854.0,0.242451
862.0,0.244333
870.0,0.245995
878.0,0.247911
886.0,0.249716
894.0,0.251588
902.0,0.253288
910.0,0.255214
918.0,0.256976
926.0,0.258336
934.0,0.258115
942.0,0.260662
950.0,0.261663
958.0,0.263701
966.0,0.266344
974.0,0.267235
982.0,0.268833
990.0,0.269325
998.0,0.270783
1006.0,0.277015
1014.0,0.278533
1022.0,0.278641
1030.0,0.279537
1038.0,0.280428
1046.0,0.281112
1054.0,0.282166
1062.0,0.282831
1070.0,0.284162
1078.0,0.285261
1086.0,0.285397
1094.0,0.2871
1102.0,0.287501
1110.0,0.287893
1118.0,0.288963
1126.0,0.289199
1134.0,0.289816
1142.0,0.293021
1150.0,0.292892
1158.0,0.294405
1166.0,0.294953
1174.0,0.295704
1182.0,0.296615
1190.0,0.297058
1198.0,0.297733
1206.0,0.298299
1214.0,0.298976
1222.0,0.298667
1230.0,0.299648
1238.0,0.299766
1246.0,0.299773
1254.0,0.300074
1262.0,0.300085
1270.0,0.30092
1278.0,0.301493
1286.0,0.301794
1294.0,0.302129
1302.0,0.30312
1310.0,0.303615
1318.0,0.30431
1326.0,0.304356
1334.0,0.305011
1342.0,0.306343
1350.0,0.302415
1358.0,0.335409
1366.0,0.262901
1374.0,0.352478
1382.0,0.238436
1390.0,0.256854
1398.0,0.303284
1406.0,0.288382
1414.0,0.302087
1422.0,0.303557
1430.0,0.307771
1438.0,0.30829
1446.0,0.307304
1454.0,0.308553
1462.0,0.308176
1470.0,0.309642
1478.0,0.30993
1486.0,0.311773
1494.0,0.312019
1502.0,0.311935
1510.0,0.312365
1518.0,0.312793
1526.0,0.313511
1534.0,0.313722
1542.0,0.314287
1550.0,0.313424
1558.0,0.314141
1566.0,0.313585
1574.0,0.313618
1582.0,0.315001
1590.0,0.314509
1598.0,0.314132
1606.0,0.314927
1614.0,0.314365
1622.0,0.31392
1630.0,0.313566
1638.0,0.313653
1646.0,0.313056
1654.0,0.313717
1662.0,0.312934
1670.0,0.31244
1678.0,0.313035
1686.0,0.314486
1694.0,0.31551
1702.0,0.315311
1710.0,0.315178
1718.0,0.315473
1726.0,0.314685
1734.0,0.316651
1742.0,0.315381
1750.0,0.315113
1758.0,0.315317
1766.0,0.31488
1774.0,0.314573
1782.0,0.315041
1790.0,0.315892
1798.0,0.316388
1806.0,0.317235
1814.0,0.32387
1822.0,0.357025
1830.0,0.308859
1838.0,0.477395
1846.0,0.0
1854.0,0.238963
1862.0,0.390486
1870.0,0.622053
1878.0,0.426355
1886.0,0.190126
1894.0,0.486969
1902.0,0.275279
1910.0,0.299499
1918.0,0.309916
1926.0,0.283903
1934.0,0.304175
1942.0,0.293713
1950.0,0.294805
1958.0,0.293503
1966.0,0.306946
1974.0,0.302939
1982.0,0.302973
1990.0,0.305058
1998.0,0.306494
2006.0,0.314993
2014.0,0.314091
2022.0,0.311264
2030.0,0.311902
2038.0,0.312912
2046.0,0.313137
2054.0,0.31185
2062.0,0.313595
2070.0,0.316732
2078.0,0.320626
2086.0,0.318667
2094.0,0.317313
2102.0,0.31816
2110.0,0.320506
2118.0,0.317543
2126.0,0.32039
2134.0,0.320438
2142.0,0.322315
2150.0,0.318532
2158.0,0.317549
2166.0,0.317723
2174.0,0.312783
2182.0,0.315305
2190.0,0.311041
2198.0,0.312539
2206.0,0.307045
2214.0,0.306291
2222.0,0.307644
2230.0,0.309352
2238.0,0.306896
2246.0,0.30735
2254.0,0.304423
2262.0,0.305907
2270.0,0.300997
2278.0,0.302153
2286.0,0.308372
2294.0,0.310386
2302.0,0.300818
2310.0,0.309319
2318.0,0.301765
2326.0,0.303796
2334.0,0.305653
2342.0,0.303238
2350.0,0.29771
2358.0,0.30637
2366.0,0.300413
2374.0,0.309279
2382.0,0.301229
2390.0,0.294361
2398.0,0.309292
2406.0,0.298018
2414.0,0.338946
2422.0,0.310702
2430.0,0.294685
2438.0,0.280098
2446.0,0.304587
2454.0,0.281289
2462.0,0.307553
2470.0,0.301161
2478.0,0.316544
2486.0,0.314411
2494.0,0.272671
2500.0,0.267917

File: AsphaltTrockenVerschmutzung1___corthum00397.txt
Wavelength (nm),Reflectance
350.0,0.0591848
358.0,0.0594738
366.0,0.061728
374.0,0.0637938
382.0,0.0661603
390.0,0.0687545
398.0,0.0703398
406.0,0.0724893
414.0,0.0743778
422.0,0.0765087
430.0,0.078839
438.0,0.0810725
446.0,0.083231
454.0,0.0853768
462.0,0.0872781
470.0,0.0890447
478.0,0.0908698
486.0,0.0931168
494.0,0.0954249
502.0,0.0978284
510.0,0.10048
518.0,0.103324
526.0,0.106225
534.0,0.109618
542.0,0.113577
550.0,0.117981
558.0,0.12307
566.0,0.128161
574.0,0.133263
582.0,0.137924
590.0,0.142327
598.0,0.146019
606.0,0.149518
614.0,0.152819
622.0,0.156006
630.0,0.159135
638.0,0.162185
646.0,0.165185
654.0,0.168155
662.0,0.17113
670.0,0.174058
678.0,0.176997
686.0,0.179839
694.0,0.182803
702.0,0.18562
710.0,0.188449
718.0,0.191648
726.0,0.194625
734.0,0.197516
742.0,0.200543
750.0,0.203741
758.0,0.207018
766.0,0.210418
774.0,0.213146
782.0,0.216101
790.0,0.21918
798.0,0.22218
806.0,0.225012
814.0,0.228061
822.0,0.23089
830.0,0.233589
838.0,0.236191
846.0,0.23874
854.0,0.241369
862.0,0.243878
870.0,0.246241
878.0,0.248758
886.0,0.251314
894.0,0.253671
902.0,0.256102
910.0,0.258493
918.0,0.260791
926.0,0.262784
934.0,0.263427
942.0,0.266313
950.0,0.268431
958.0,0.270552
966.0,0.273278
974.0,0.274976
982.0,0.27762
990.0,0.278048
998.0,0.279506
1006.0,0.287088
1014.0,0.288738
1022.0,0.289592
1030.0,0.290601
1038.0,0.29188
1046.0,0.293223
1054.0,0.295165
1062.0,0.295786
1070.0,0.297622
1078.0,0.298012
1086.0,0.299249
1094.0,0.300841
1102.0,0.301184
1110.0,0.302388
1118.0,0.303644
1126.0,0.304099
1134.0,0.304037
1142.0,0.306954
1150.0,0.307603
1158.0,0.309234
1166.0,0.310084
1174.0,0.311048
1182.0,0.311857
1190.0,0.312316
1198.0,0.313518
1206.0,0.314093
1214.0,0.314819
1222.0,0.314883
1230.0,0.315665
1238.0,0.315656
1246.0,0.315873
1254.0,0.316358
1262.0,0.316555
1270.0,0.317432
1278.0,0.318229
1286.0,0.318592
1294.0,0.319331
1302.0,0.32027
1310.0,0.320479
1318.0,0.321139
1326.0,0.321329
1334.0,0.321982
1342.0,0.32379
1350.0,0.320847
1358.0,0.347626
1366.0,0.188577
1374.0,0.355579
1382.0,0.223555
1390.0,0.276906
1398.0,0.296683
1406.0,0.308674
1414.0,0.312922
1422.0,0.316999
1430.0,0.320542
1438.0,0.319392
1446.0,0.319895
1454.0,0.320569
1462.0,0.320604
1470.0,0.322465
1478.0,0.322739
1486.0,0.324503
1494.0,0.324877
1502.0,0.325035
1510.0,0.325826
1518.0,0.326333
1526.0,0.327493
1534.0,0.327519
1542.0,0.328349
1550.0,0.327933
1558.0,0.327644
1566.0,0.328118
1574.0,0.328231
1582.0,0.32938
1590.0,0.329436
1598.0,0.329488
1606.0,0.329733
1614.0,0.329557
1622.0,0.32952
1630.0,0.328692
1638.0,0.32848
1646.0,0.328794
1654.0,0.328944
1662.0,0.327947
1670.0,0.327438
1678.0,0.328585
1686.0,0.329732
1694.0,0.330433
1702.0,0.330747
1710.0,0.33088
1718.0,0.33084
1726.0,0.330344
1734.0,0.331166
1742.0,0.330226
1750.0,0.330293
1758.0,0.329774
1766.0,0.330451
1774.0,0.329179
1782.0,0.330434
1790.0,0.331424
1798.0,0.333652
1806.0,0.339674
1814.0,0.329584
1822.0,0.341622
1830.0,0.308498
1838.0,0.781379
1846.0,0.0
1854.0,0.132618
1862.0,0.43921
1870.0,1.0
1878.0,0.538081
1886.0,0.23465
1894.0,0.633186
1902.0,0.210396
1910.0,0.0236923
1918.0,0.301237
1926.0,0.2224
1934.0,0.295943
1942.0,0.302156
1950.0,0.308487
1958.0,0.312122
1966.0,0.30931
1974.0,0.311015
1982.0,0.314597
1990.0,0.314747
1998.0,0.314614
2006.0,0.317984
2014.0,0.319794
2022.0,0.325416
2030.0,0.321516
2038.0,0.322828
2046.0,0.320458
2054.0,0.324247
2062.0,0.326327
2070.0,0.324893
2078.0,0.331257
2086.0,0.329047
2094.0,0.32577
2102.0,0.32629
2110.0,0.330611
2118.0,0.324834
2126.0,0.329467
2134.0,0.327296
2142.0,0.330332
2150.0,0.328679
2158.0,0.326555
2166.0,0.32715
2174.0,0.326252
2182.0,0.322686
2190.0,0.319165
2198.0,0.322227
2206.0,0.317487
2214.0,0.316211
2222.0,0.321209
2230.0,0.318951
2238.0,0.318545
2246.0,0.313918
2254.0,0.314834
2262.0,0.315495
2270.0,0.314464
2278.0,0.31158
2286.0,0.317031
2294.0,0.315387
2302.0,0.311878
2310.0,0.315923
2318.0,0.310428
2326.0,0.311339
2334.0,0.319616
2342.0,0.313334
2350.0,0.308076
2358.0,0.315205
2366.0,0.311842
2374.0,0.312183
2382.0,0.306767
2390.0,0.297865
2398.0,0.328936
2406.0,0.317934
2414.0,0.327003
2422.0,0.304241
2430.0,0.310213
2438.0,0.271054
2446.0,0.318736
2454.0,0.269107
2462.0,0.274615
2470.0,0.289669
2478.0,0.272943
2486.0,0.319843
2494.0,0.156592
2500.0,0.20609

File: AsphaltTrockenVerschmutzung1___corthum00398.txt
Wavelength (nm),Reflectance
350.0,0.06344
358.0,0.0649929
366.0,0.0669203
374.0,0.0692653
382.0,0.0717977
390.0,0.0743989
398.0,0.0760796
406.0,0.0782967
414.0,0.0802359
422.0,0.0824816
430.0,0.0848308
438.0,0.08715
446.0,0.0894736
454.0,0.0916199
462.0,0.0935468
470.0,0.0954718
478.0,0.0973283
486.0,0.0995974
494.0,0.102033
502.0,0.104598
510.0,0.107237
518.0,0.110161
526.0,0.113219
534.0,0.116704
542.0,0.120648
550.0,0.124993
558.0,0.129862
566.0,0.134665
574.0,0.139375
582.0,0.143809
590.0,0.147879
598.0,0.151468
606.0,0.154865
614.0,0.158245
622.0,0.16139
630.0,0.16466
638.0,0.167804
646.0,0.170925
654.0,0.173986
662.0,0.177061
670.0,0.180059
678.0,0.182974
686.0,0.185967
694.0,0.188935
702.0,0.191842
710.0,0.194691
718.0,0.197882
726.0,0.200931
734.0,0.203978
742.0,0.207136
750.0,0.210457
758.0,0.213879
766.0,0.217364
774.0,0.220289
782.0,0.22342
790.0,0.226729
798.0,0.229838
806.0,0.232906
814.0,0.236116
822.0,0.239142
830.0,0.242018
838.0,0.244806
846.0,0.247471
854.0,0.250198
862.0,0.252892
870.0,0.255363
878.0,0.25794
886.0,0.260492
894.0,0.262828
902.0,0.265505
910.0,0.267547
918.0,0.270237
926.0,0.271968
934.0,0.271527
942.0,0.275651
950.0,0.276453
958.0,0.27971
966.0,0.281973
974.0,0.2834
982.0,0.286479
990.0,0.287343
998.0,0.28888
1006.0,0.295487
1014.0,0.297098
1022.0,0.297571
1030.0,0.298806
1038.0,0.299501
1046.0,0.300825
1054.0,0.301978
1062.0,0.303184
1070.0,0.304665
1078.0,0.305552
1086.0,0.306241
1094.0,0.308366
1102.0,0.308396
1110.0,0.309562
1118.0,0.310543
1126.0,0.309903
1134.0,0.311927
1142.0,0.313866
1150.0,0.315021
1158.0,0.316164
1166.0,0.317168
1174.0,0.318324
1182.0,0.318795
1190.0,0.319647
1198.0,0.320684
1206.0,0.321085
1214.0,0.322054
1222.0,0.321972
1230.0,0.322795
1238.0,0.323032
1246.0,0.323017
1254.0,0.323379
1262.0,0.322997
1270.0,0.324417
1278.0,0.325267
1286.0,0.325512
1294.0,0.326124
1302.0,0.327323
1310.0,0.327305
1318.0,0.32819
1326.0,0.328348
1334.0,0.328934
1342.0,0.329682
1350.0,0.326791
1358.0,0.340834
1366.0,0.180693
1374.0,0.377082
1382.0,0.258844
1390.0,0.280138
1398.0,0.296804
1406.0,0.312658
1414.0,0.317635
1422.0,0.319602
1430.0,0.325069
1438.0,0.325007
1446.0,0.325406
1454.0,0.325719
1462.0,0.325662
1470.0,0.327043
1478.0,0.327428
1486.0,0.329467
1494.0,0.330717
1502.0,0.330572
1510.0,0.331148
1518.0,0.331476
1526.0,0.332805
1534.0,0.333026
1542.0,0.333296
1550.0,0.333576
1558.0,0.33346
1566.0,0.33394
1574.0,0.333261
1582.0,0.335007
1590.0,0.334928
1598.0,0.33488
1606.0,0.335593
1614.0,0.335127
1622.0,0.33499
1630.0,0.334332
1638.0,0.334522
1646.0,0.333959
1654.0,0.333799
1662.0,0.333437
1670.0,0.332746
1678.0,0.333979
1686.0,0.335743
1694.0,0.335597
1702.0,0.335724
1710.0,0.336431
1718.0,0.335415
1726.0,0.335578
1734.0,0.335763
1742.0,0.335549
1750.0,0.334859
1758.0,0.335223
1766.0,0.335825
1774.0,0.335419
1782.0,0.334351
1790.0,0.3347
1798.0,0.332792
1806.0,0.334112
1814.0,0.33868
1822.0,0.370016
1830.0,0.403261
1838.0,1.0
1846.0,0.0
1854.0,0.33596
1862.0,0.439279
1870.0,1.0
1878.0,0.650045
1886.0,0.321515
1894.0,0.466917
1902.0,0.354868
1910.0,0.260446
1918.0,0.389381
1926.0,0.328928
1934.0,0.322583
1942.0,0.309622
1950.0,0.310301
1958.0,0.315941
1966.0,0.315806
1974.0,0.315406
1982.0,0.317757
1990.0,0.319572
1998.0,0.318778
2006.0,0.341551
2014.0,0.329253
2022.0,0.330885
2030.0,0.323998
2038.0,0.326026
2046.0,0.325781
2054.0,0.327882
2062.0,0.326764
2070.0,0.328943
2078.0,0.332586
2086.0,0.332041
2094.0,0.329118
2102.0,0.328961
2110.0,0.332681
2118.0,0.329572
2126.0,0.334289
2134.0,0.331535
2142.0,0.334248
2150.0,0.330089
2158.0,0.330884
2166.0,0.329806
2174.0,0.326359
2182.0,0.326586
2190.0,0.324439
2198.0,0.325544
2206.0,0.319932
2214.0,0.319234
2222.0,0.322848
2230.0,0.321188
2238.0,0.32051
2246.0,0.320198
2254.0,0.316938
2262.0,0.320813
2270.0,0.315753
2278.0,0.30959
2286.0,0.315189
2294.0,0.318498
2302.0,0.3047
2310.0,0.318582
2318.0,0.317171
2326.0,0.318347
2334.0,0.319716
2342.0,0.312973
2350.0,0.314774
2358.0,0.316809
2366.0,0.31447
2374.0,0.321636
2382.0,0.315225
2390.0,0.311494
2398.0,0.313409
2406.0,0.306377
2414.0,0.348082
2422.0,0.303874
2430.0,0.301114
2438.0,0.293304
2446.0,0.316197
2454.0,0.286653
2462.0,0.310912
2470.0,0.307705
2478.0,0.326652
2486.0,0.707426
2494.0,0.326097
2500.0,0.313416

File: AsphaltTrockenVerschmutzung1___corthum00399.txt
Wavelength (nm),Reflectance
350.0,0.0582415
358.0,0.0588875
366.0,0.0608029
374.0,0.0627596
382.0,0.0646501
390.0,0.0672754
398.0,0.0689655
406.0,0.0706436
414.0,0.0726754
422.0,0.074677
430.0,0.0766999
438.0,0.0787416
446.0,0.0807287
454.0,0.0827338
462.0,0.0844811
470.0,0.0862406
478.0,0.0880369
486.0,0.0900675
494.0,0.0923447
502.0,0.0947518
510.0,0.097135
518.0,0.0998783
526.0,0.102722
534.0,0.105965
542.0,0.109617
550.0,0.113591
558.0,0.117978
566.0,0.122295
574.0,0.1265
582.0,0.130462
590.0,0.134355
598.0,0.137684
606.0,0.14102
614.0,0.144389
622.0,0.147593
630.0,0.150978
638.0,0.154162
646.0,0.157325
654.0,0.160533
662.0,0.163725
670.0,0.166776
678.0,0.169853
686.0,0.172963
694.0,0.176031
702.0,0.179098
710.0,0.182224
718.0,0.185459
726.0,0.188686
734.0,0.191983
742.0,0.195394
750.0,0.19889
758.0,0.202531
766.0,0.206287
774.0,0.209602
782.0,0.213106
790.0,0.216689
798.0,0.220174
806.0,0.223634
814.0,0.227199
822.0,0.230592
830.0,0.233972
838.0,0.237316
846.0,0.24046
854.0,0.24366
862.0,0.246738
870.0,0.249708
878.0,0.252725
886.0,0.255894
894.0,0.258487
902.0,0.26148
910.0,0.264015
918.0,0.267012
926.0,0.269409
934.0,0.268715
942.0,0.272753
950.0,0.274329
958.0,0.277883
966.0,0.281276
974.0,0.282949
982.0,0.285891
990.0,0.28727
998.0,0.28859
1006.0,0.296707
1014.0,0.297981
1022.0,0.299035
1030.0,0.300693
1038.0,0.301748
1046.0,0.303263
1054.0,0.304854
1062.0,0.306614
1070.0,0.308416
1078.0,0.309311
1086.0,0.31052
1094.0,0.311804
1102.0,0.312769
1110.0,0.313397
1118.0,0.314797
1126.0,0.31564
1134.0,0.315321
1142.0,0.31923
1150.0,0.319475
1158.0,0.321534
1166.0,0.322146
1174.0,0.323731
1182.0,0.324744
1190.0,0.325281
1198.0,0.326437
1206.0,0.326872
1214.0,0.328223
1222.0,0.328101
1230.0,0.329241
1238.0,0.329617
1246.0,0.32992
1254.0,0.330849
1262.0,0.330806
1270.0,0.331457
1278.0,0.332743
1286.0,0.332872
1294.0,0.333881
1302.0,0.334925
1310.0,0.335094
1318.0,0.336392
1326.0,0.336016
1334.0,0.336441
1342.0,0.33756
1350.0,0.334682
1358.0,0.371672
1366.0,0.341702
1374.0,0.422867
1382.0,0.280314
1390.0,0.335958
1398.0,0.318179
1406.0,0.322624
1414.0,0.329012
1422.0,0.327757
1430.0,0.328129
1438.0,0.328994
1446.0,0.327278
1454.0,0.327136
1462.0,0.327632
1470.0,0.328438
1478.0,0.329565
1486.0,0.332328
1494.0,0.332741
1502.0,0.333084
1510.0,0.334697
1518.0,0.335
1526.0,0.336156
1534.0,0.336801
1542.0,0.337466
1550.0,0.337626
1558.0,0.337629
1566.0,0.338035
1574.0,0.338131
1582.0,0.339745
1590.0,0.339835
1598.0,0.339821
1606.0,0.339915
1614.0,0.340408
1622.0,0.340767
1630.0,0.340364
1638.0,0.340301
1646.0,0.339773
1654.0,0.340343
1662.0,0.339745
1670.0,0.338352
1678.0,0.339845
1686.0,0.340986
1694.0,0.341064
1702.0,0.340815
1710.0,0.34093
1718.0,0.340665
1726.0,0.340514
1734.0,0.340973
1742.0,0.34113
1750.0,0.340449
1758.0,0.340125
1766.0,0.34063
1774.0,0.340341
1782.0,0.33898
1790.0,0.339568
1798.0,0.338673
1806.0,0.348626
1814.0,0.343078
1822.0,0.349131
1830.0,0.308049
1838.0,0.905798
1846.0,0.0
1854.0,0.0994638
1862.0,0.481367
1870.0,0.748471
1878.0,0.600437
1886.0,0.327956
1894.0,0.52881
1902.0,0.587189
1910.0,0.271516
1918.0,0.220591
1926.0,0.268924
1934.0,0.303376
1942.0,0.286385
1950.0,0.30571
1958.0,0.316273
1966.0,0.314125
1974.0,0.312136
1982.0,0.309268
1990.0,0.312554
1998.0,0.313283
2006.0,0.319807
2014.0,0.320081
2022.0,0.320979
2030.0,0.323028
2038.0,0.324219
2046.0,0.324667
2054.0,0.321042
2062.0,0.320876
2070.0,0.32461
2078.0,0.324343
2086.0,0.326486
2094.0,0.32388
2102.0,0.325591
2110.0,0.327619
2118.0,0.322644
2126.0,0.329751
2134.0,0.326595
2142.0,0.327521
2150.0,0.325279
2158.0,0.324816
2166.0,0.324718
2174.0,0.323111
2182.0,0.323861
2190.0,0.322016
2198.0,0.321979
2206.0,0.320462
2214.0,0.318272
2222.0,0.3205
2230.0,0.319232
2238.0,0.31689
2246.0,0.316832
2254.0,0.310221
2262.0,0.315369
2270.0,0.30924
2278.0,0.306088
2286.0,0.309839
2294.0,0.308783
2302.0,0.304654
2310.0,0.311608
2318.0,0.299419
2326.0,0.303111
2334.0,0.305487
2342.0,0.303376
2350.0,0.288645
2358.0,0.304737
2366.0,0.305538
2374.0,0.311093
2382.0,0.311656
2390.0,0.292879
2398.0,0.302432
2406.0,0.296889
2414.0,0.315872
2422.0,0.304266
2430.0,0.322631
2438.0,0.282301
2446.0,0.312027
2454.0,0.268982
2462.0,0.268836
2470.0,0.273162
2478.0,0.331114
2486.0,0.566961
2494.0,0.308227
2500.0,0.286164