Folder: hyperspectral_benchmark/data/spectra_ascii

Note: README.md
# Hyperspectral Benchmark - Visualization

**Live Demo:** [https://20korvin01.github.io/hyperspectral_benchmark/](https://20korvin01.github.io/hyperspectral_benchmark/)

Interaktive Webanwendung zur Visualisierung und Analyse von hyperspektralen Messdaten und Materialproben. Teil einer Masterarbeit zur Entwicklung eines Benchmarks für die Auswertung multi-temporaler hyperspektraler Daten.

## Über das Projekt

Diese Anwendung ist Teil eines größeren Benchmarking-Projekts für hyperspektrale Daten. Die Daten wurden bei der corthum Nordschwarzwald GmbH - corthum Erdenwerk (Fertigbeton BETON2GO) aufgenommen.

### Ziele des Benchmarks
- Bereitstellung standardisierter Datensätze für die Entwicklung und Evaluierung von Algorithmen
- Fokus auf multi-temporale hyperspektrale Datenauswertung
- Unterstützung von Machine Learning Anwendungen durch umfangreiche, gelabelte Trainingsdaten
- Bewertung der Modellrobustheit über verschiedene Zeitpunkte

## Dateneigenschaften

- **Spektrale Vielfalt** durch verschiedene Materialproben und Messbedingungen
- **Temporale Abdeckung** für Robustheitsprüfungen
- **Qualitätssicherung** durch Referenzmessungen mit Feldspektrometer
- **Vollständige Annotation** aller Pixel mit Ground Truth Information
- **Georeferenzierung** der Daten (Radiance und Ground Reflectance)

## Features der Visualisierung

- **Interaktive Karte** mit Positionen der Materialproben
- **Materialfilter** und Sortierung (A-Z, Z-A)
- **Detailansicht** für jedes Material mit:
  - Fotografien
  - Spektrendaten
  - Gemittelte Spektren
- **GeoJSON-basierte Metadaten** mit EXIF-Daten und Materialinformationen

## Datenstruktur

- `data/geojson/` - Räumliche Daten und Metadaten (GeoJSON)
- `data/mean_spectra_ascii/` - Gemittelte Spektren
- `data/spectra_ascii/` - Einzelne Spektrenmessungen
- `data/spectra_binary/` - Binäre Spektrendaten (ASD-Format)
- `img/materials/` - Materialfotos
- `utils/` - Python-Scripts zur Datenverarbeitung

## Technologie

- **Frontend:** HTML5, CSS3, JavaScript (Vanilla)
- **Kartendarstellung:** Leaflet
- **Datenformate:** GeoJSON, ASD (Spektrometer), CSV

## Datenverarbeitung (Noch in Entwicklung)

1. Aufnahme der Rohdaten (Digital Numbers)
2. Konvertierung zu Radiance
3. Geometrische Korrektur für georeferenzierte Radiance
4. Atmosphärische Korrektur für georeferenzierte Ground Reflectance
5. Annotation und Ground Truth Erstellung

---

*Masterarbeit - Development of a benchmark for multi-temporal hyperspectral data exploitation*

File: AsphaltNassPfuetzen___corthum00440.txt
Wavelength (nm),Reflectance
350.0,0.0244329
358.0,0.0235995
366.0,0.0230912
374.0,0.022939
382.0,0.0229076
390.0,0.0226321
398.0,0.0230477
406.0,0.0230023
414.0,0.0232082
422.0,0.0234708
430.0,0.0238459
438.0,0.0242878
446.0,0.0247494
454.0,0.0251506
462.0,0.0255831
470.0,0.0260241
478.0,0.0264186
486.0,0.0269923
494.0,0.0275286
502.0,0.0281895
510.0,0.028822
518.0,0.0295054
526.0,0.030203
534.0,0.0310407
542.0,0.0320305
550.0,0.0330681
558.0,0.0343148
566.0,0.0355087
574.0,0.0366567
582.0,0.0376237
590.0,0.0387477
598.0,0.0395362
606.0,0.0403001
614.0,0.0411123
622.0,0.0418684
630.0,0.0427908
638.0,0.043424
646.0,0.04415
654.0,0.0449058
662.0,0.0456646
670.0,0.0463301
678.0,0.0470793
686.0,0.0478902
694.0,0.0486809
702.0,0.049217
710.0,0.049855
718.0,0.051169
726.0,0.0517534
734.0,0.0521285
742.0,0.052729
750.0,0.0534705
758.0,0.0542117
766.0,0.0554387
774.0,0.0554621
782.0,0.0560864
790.0,0.0567239
798.0,0.0572536
806.0,0.0577763
814.0,0.0586543
822.0,0.0589665
830.0,0.0591127
838.0,0.0593268
846.0,0.0594512
854.0,0.0598193
862.0,0.0599313
870.0,0.0602382
878.0,0.0604868
886.0,0.060814
894.0,0.0611232
902.0,0.0614023
910.0,0.0614196
918.0,0.0617762
926.0,0.0616482
934.0,0.0614266
942.0,0.0607765
950.0,0.0595559
958.0,0.0584876
966.0,0.0584211
974.0,0.0575399
982.0,0.0579757
990.0,0.0579829
998.0,0.0584542
1006.0,0.0609866
1014.0,0.0619134
1022.0,0.0626984
1030.0,0.0630957
1038.0,0.0637332
1046.0,0.0641949
1054.0,0.0645914
1062.0,0.0651777
1070.0,0.0658856
1078.0,0.0661338
1086.0,0.066245
1094.0,0.0657979
1102.0,0.0658393
1110.0,0.0659836
1118.0,0.0664399
1126.0,0.0666345
1134.0,0.0648802
1142.0,0.0617477
1150.0,0.0583562
1158.0,0.0555568
1166.0,0.0543343
1174.0,0.0542327
1182.0,0.053866
1190.0,0.0537504
1198.0,0.053692
1206.0,0.0537816
1214.0,0.053909
1222.0,0.0544366
1230.0,0.0546169
1238.0,0.0551294
1246.0,0.0554035
1254.0,0.0560231
1262.0,0.0567715
1270.0,0.0564682
1278.0,0.0565792
1286.0,0.0559886
1294.0,0.0549962
1302.0,0.0543919
1310.0,0.0532614
1318.0,0.0514058
1326.0,0.0493346
1334.0,0.0471969
1342.0,0.0455614
1350.0,0.0453748
1358.0,0.0588345
1366.0,0.0631352
1374.0,0.00740904
1382.0,0.0580514
1390.0,0.0250711
1398.0,0.0378693
1406.0,0.0143087
1414.0,0.021002
1422.0,0.0180982
1430.0,0.013962
1438.0,0.0131938
1446.0,0.0141571
1454.0,0.0115168
1462.0,0.0116247
1470.0,0.0120677
1478.0,0.0113217
1486.0,0.0117572
1494.0,0.0115968
1502.0,0.011995
1510.0,0.0124724
1518.0,0.0127692
1526.0,0.0139536
1534.0,0.0152242
1542.0,0.0161867
1550.0,0.0172853
1558.0,0.018814
1566.0,0.0197206
1574.0,0.0211279
1582.0,0.0221817
1590.0,0.0230421
1598.0,0.0244163
1606.0,0.0253363
1614.0,0.025929
1622.0,0.0267239
1630.0,0.0266737
1638.0,0.02776
1646.0,0.0281714
1654.0,0.0288736
1662.0,0.0292295
1670.0,0.0292431
1678.0,0.0292189
1686.0,0.0294414
1694.0,0.029634
1702.0,0.0292444
1710.0,0.0290893
1718.0,0.0289356
1726.0,0.0284199
1734.0,0.0267014
1742.0,0.0271738
1750.0,0.0250267
1758.0,0.024771
1766.0,0.0232843
1774.0,0.0237868
1782.0,0.0225367
1790.0,0.0218861
1798.0,0.0226495
1806.0,0.039015
1814.0,0.0478173
1822.0,0.0847252
1830.0,0.0772176
1838.0,0.0
1846.0,0.0
1854.0,0.0
1862.0,0.461409
1870.0,0.0727606
1878.0,0.0
1886.0,0.10456
1894.0,0.0128611
1902.0,1.0
1910.0,0.137836
1918.0,0.0
1926.0,0.0195285
1934.0,0.0591324
1942.0,0.011652
1950.0,0.0138046
1958.0,0.0127073
1966.0,0.0129221
1974.0,0.00576395
1982.0,0.00719607
1990.0,0.00753744
1998.0,0.00446778
2006.0,0.0115664
2014.0,0.0164171
2022.0,0.00454932
2030.0,0.0105312
2038.0,0.00379682
2046.0,0.00603077
2054.0,0.00811925
2062.0,0.00841268
2070.0,0.0089193
2078.0,0.00870037
2086.0,0.00779215
2094.0,0.00822771
2102.0,0.0100202
2110.0,0.00973914
2118.0,0.0109071
2126.0,0.0117197
2134.0,0.0105121
2142.0,0.011429
2150.0,0.010957
2158.0,0.0108706
2166.0,0.0123047
2174.0,0.0148053
2182.0,0.0102033
2190.0,0.0144465
2198.0,0.0132485
2206.0,0.0103352
2214.0,0.0127149
2222.0,0.012195
2230.0,0.0130347
2238.0,0.0125187
2246.0,0.0125308
2254.0,0.0094423
2262.0,0.00959757
2270.0,0.0100092
2278.0,0.0129185
2286.0,0.0147961
2294.0,0.00981179
2302.0,0.00868804
2310.0,0.00652517
2318.0,0.00841387
2326.0,0.00807179
2334.0,0.0078839
2342.0,0.00968852
2350.0,0.00126126
2358.0,0.00482173
2366.0,0.00164634
2374.0,0.00955345
2382.0,0.00841357
2390.0,0.00703819
2398.0,0.0136981
2406.0,0.0098881
2414.0,0.0158787
2422.0,0.025232
2430.0,0.0227235
2438.0,3.41234e-05
2446.0,0.0
2454.0,0.0
2462.0,0.00264185
2470.0,0.0127744
2478.0,0.0
2486.0,0.0
2494.0,0.0
2500.0,0.212872

File: AsphaltNassPfuetzen___corthum00441.txt
Wavelength (nm),Reflectance
350.0,0.0242581
358.0,0.0241157
366.0,0.0233593
374.0,0.023275
382.0,0.0232862
390.0,0.0229062
398.0,0.0232514
406.0,0.023273
414.0,0.0233643
422.0,0.0236221
430.0,0.0240225
438.0,0.0244327
446.0,0.0248782
454.0,0.0252109
462.0,0.025675
470.0,0.0261081
478.0,0.0264828
486.0,0.0269749
494.0,0.0275303
502.0,0.0281759
510.0,0.0287569
518.0,0.0294723
526.0,0.0300694
534.0,0.0310003
542.0,0.0319632
550.0,0.0330261
558.0,0.0342112
566.0,0.0353924
574.0,0.0365519
582.0,0.0374884
590.0,0.03865
598.0,0.0394236
606.0,0.0401682
614.0,0.0409372
622.0,0.0416933
630.0,0.0425754
638.0,0.043223
646.0,0.0439385
654.0,0.0446663
662.0,0.0454286
670.0,0.0460793
678.0,0.0467906
686.0,0.0476522
694.0,0.0483814
702.0,0.0489284
710.0,0.0495312
718.0,0.0508542
726.0,0.0513712
734.0,0.0517669
742.0,0.052362
750.0,0.0530996
758.0,0.0538149
766.0,0.0550829
774.0,0.0550828
782.0,0.0557017
790.0,0.0562925
798.0,0.0568231
806.0,0.0573264
814.0,0.0582093
822.0,0.0585631
830.0,0.0586798
838.0,0.0588582
846.0,0.0589335
854.0,0.0594601
862.0,0.0595369
870.0,0.0597542
878.0,0.0601222
886.0,0.0603085
894.0,0.0606826
902.0,0.0609403
910.0,0.060972
918.0,0.0614668
926.0,0.061256
934.0,0.0616331
942.0,0.0614861
950.0,0.0597766
958.0,0.0586271
966.0,0.0581849
974.0,0.0581293
982.0,0.0575201
990.0,0.0578307
998.0,0.0588944
1006.0,0.0612342
1014.0,0.0618141
1022.0,0.0626248
1030.0,0.063229
1038.0,0.0641075
1046.0,0.0645353
1054.0,0.0648268
1062.0,0.0650687
1070.0,0.0655698
1078.0,0.0659175
1086.0,0.0654374
1094.0,0.0654235
1102.0,0.065981
1110.0,0.0655825
1118.0,0.06667
1126.0,0.0665147
1134.0,0.064145
1142.0,0.0621345
1150.0,0.0594006
1158.0,0.0569046
1166.0,0.0558177
1174.0,0.0555707
1182.0,0.0555029
1190.0,0.055342
1198.0,0.0551524
1206.0,0.0552428
1214.0,0.0553334
1222.0,0.0555454
1230.0,0.0560657
1238.0,0.0563882
1246.0,0.0567632
1254.0,0.0571771
1262.0,0.0577008
1270.0,0.0577046
1278.0,0.0576358
1286.0,0.0572294
1294.0,0.0568848
1302.0,0.0560845
1310.0,0.0550191
1318.0,0.0532256
1326.0,0.0514131
1334.0,0.0495988
1342.0,0.0480419
1350.0,0.0492076
1358.0,0.0496696
1366.0,0.259322
1374.0,0.0495423
1382.0,0.036915
1390.0,0.0579764
1398.0,0.0222624
1406.0,0.0275364
1414.0,0.021132
1422.0,0.0219928
1430.0,0.0166382
1438.0,0.0139473
1446.0,0.0126918
1454.0,0.0120595
1462.0,0.011395
1470.0,0.011823
1478.0,0.0113238
1486.0,0.0120235
1494.0,0.0121472
1502.0,0.0127857
1510.0,0.0136247
1518.0,0.0144067
1526.0,0.0155978
1534.0,0.0168236
1542.0,0.0182354
1550.0,0.0193295
1558.0,0.0205743
1566.0,0.0226149
1574.0,0.0238564
1582.0,0.0247922
1590.0,0.0259738
1598.0,0.0266935
1606.0,0.0278485
1614.0,0.0285757
1622.0,0.0296221
1630.0,0.0303015
1638.0,0.0307955
1646.0,0.0315759
1654.0,0.0315087
1662.0,0.032123
1670.0,0.0322227
1678.0,0.0328813
1686.0,0.032824
1694.0,0.0326079
1702.0,0.0329471
1710.0,0.0325853
1718.0,0.0325765
1726.0,0.0318932
1734.0,0.0306167
1742.0,0.0306313
1750.0,0.0286378
1758.0,0.0269932
1766.0,0.0274618
1774.0,0.0270144
1782.0,0.0266439
1790.0,0.0253544
1798.0,0.0265547
1806.0,0.0479908
1814.0,0.0646883
1822.0,0.0775798
1830.0,0.120001
1838.0,0.0
1846.0,0.0
1854.0,0.0
1862.0,0.701087
1870.0,0.198056
1878.0,0.352607
1886.0,0.106847
1894.0,0.085286
1902.0,0.0
1910.0,0.0
1918.0,0.126096
1926.0,0.0878363
1934.0,0.0388361
1942.0,0.011135
1950.0,0.0256844
1958.0,0.0254631
1966.0,0.0174106
1974.0,0.00813439
1982.0,0.00732045
1990.0,0.00581721
1998.0,0.00462102
2006.0,0.00862932
2014.0,0.0115006
2022.0,0.0102089
2030.0,0.00600766
2038.0,0.00683366
2046.0,0.00817916
2054.0,0.00846248
2062.0,0.0101652
2070.0,0.0107656
2078.0,0.00921157
2086.0,0.00955682
2094.0,0.00741185
2102.0,0.00996469
2110.0,0.00991839
2118.0,0.014547
2126.0,0.0129872
2134.0,0.0118497
2142.0,0.0129519
2150.0,0.01396
2158.0,0.0154715
2166.0,0.0146917
2174.0,0.0140989
2182.0,0.0144145
2190.0,0.0158735
2198.0,0.0155039
2206.0,0.0141353
2214.0,0.0169511
2222.0,0.0141638
2230.0,0.0136606
2238.0,0.0150507
2246.0,0.0167181
2254.0,0.0133368
2262.0,0.0149848
2270.0,0.0130106
2278.0,0.0158082
2286.0,0.0111406
2294.0,0.0108076
2302.0,0.0119754
2310.0,0.0146614
2318.0,0.0161645
2326.0,0.0127241
2334.0,0.00586124
2342.0,0.0132836
2350.0,0.0118461
2358.0,0.00602808
2366.0,0.00358218
2374.0,0.00998879
2382.0,0.0191093
2390.0,0.00942486
2398.0,0.00971099
2406.0,0.0131312
2414.0,0.0120231
2422.0,0.00616278
2430.0,0.00820547
2438.0,0.0196576
2446.0,0.0
2454.0,0.0257769
2462.0,0.0
2470.0,0.0
2478.0,0.0
2486.0,0.00743652
2494.0,0.0591632
2500.0,0.129183

File: AsphaltNassPfuetzen___corthum00442.txt
Wavelength (nm),Reflectance
350.0,0.0256164
358.0,0.0249871
366.0,0.0247111
374.0,0.0245433
382.0,0.0245623
390.0,0.0242609
398.0,0.024613
406.0,0.0243414
414.0,0.0244543
422.0,0.0247235
430.0,0.0249915
438.0,0.0254662
446.0,0.0258077
454.0,0.0261834
462.0,0.0265298
470.0,0.0269149
478.0,0.0272375
486.0,0.0277242
494.0,0.0281516
502.0,0.0288005
510.0,0.02937
518.0,0.0299792
526.0,0.0306439
534.0,0.0314972
542.0,0.0324444
550.0,0.0335428
558.0,0.0348175
566.0,0.036035
574.0,0.0372591
582.0,0.0382728
590.0,0.0393698
598.0,0.0401949
606.0,0.0410435
614.0,0.0418298
622.0,0.0424808
630.0,0.0434289
638.0,0.0440422
646.0,0.0447605
654.0,0.0454875
662.0,0.0462261
670.0,0.0468832
678.0,0.0475628
686.0,0.0484315
694.0,0.0491854
702.0,0.0497531
710.0,0.0504275
718.0,0.0517293
726.0,0.0523136
734.0,0.0527474
742.0,0.0533946
750.0,0.054092
758.0,0.0548982
766.0,0.0561226
774.0,0.0561549
782.0,0.0568294
790.0,0.0574383
798.0,0.0579612
806.0,0.0584751
814.0,0.059407
822.0,0.0596525
830.0,0.0599144
838.0,0.0601241
846.0,0.0603669
854.0,0.0606514
862.0,0.0608887
870.0,0.0612386
878.0,0.0614445
886.0,0.0618564
894.0,0.0622796
902.0,0.0622925
910.0,0.0624781
918.0,0.063009
926.0,0.0626432
934.0,0.0638933
942.0,0.0627686
950.0,0.0613303
958.0,0.0616205
966.0,0.0610437
974.0,0.0611642
982.0,0.0608109
990.0,0.0616042
998.0,0.0616269
1006.0,0.065075
1014.0,0.0655038
1022.0,0.0659655
1030.0,0.0667402
1038.0,0.0671979
1046.0,0.0669233
1054.0,0.0676469
1062.0,0.0683292
1070.0,0.0688455
1078.0,0.0690007
1086.0,0.0691856
1094.0,0.0688421
1102.0,0.0696447
1110.0,0.0690878
1118.0,0.0705247
1126.0,0.0714342
1134.0,0.0689347
1142.0,0.0677924
1150.0,0.065124
1158.0,0.063018
1166.0,0.0623572
1174.0,0.0620403
1182.0,0.0616647
1190.0,0.0614446
1198.0,0.0617427
1206.0,0.0619169
1214.0,0.0623265
1222.0,0.0623927
1230.0,0.062542
1238.0,0.0628072
1246.0,0.0630431
1254.0,0.0636289
1262.0,0.0644122
1270.0,0.0647631
1278.0,0.0643162
1286.0,0.0638256
1294.0,0.0637255
1302.0,0.0628211
1310.0,0.0621462
1318.0,0.0607268
1326.0,0.0593985
1334.0,0.0578571
1342.0,0.0566939
1350.0,0.0574392
1358.0,0.0707898
1366.0,0.18752
1374.0,0.102643
1382.0,0.0980648
1390.0,0.0548661
1398.0,0.0409672
1406.0,0.0506369
1414.0,0.0331898
1422.0,0.0261149
1430.0,0.0232791
1438.0,0.0221019
1446.0,0.0204492
1454.0,0.0186437
1462.0,0.018237
1470.0,0.0191902
1478.0,0.0190158
1486.0,0.0193343
1494.0,0.0195294
1502.0,0.0205734
1510.0,0.0220782
1518.0,0.0231713
1526.0,0.0246687
1534.0,0.0263475
1542.0,0.027665
1550.0,0.0294247
1558.0,0.0309551
1566.0,0.0329227
1574.0,0.0343204
1582.0,0.0357127
1590.0,0.0370945
1598.0,0.0380206
1606.0,0.0392044
1614.0,0.0398612
1622.0,0.0409327
1630.0,0.0411187
1638.0,0.0421899
1646.0,0.0422343
1654.0,0.0431308
1662.0,0.043359
1670.0,0.0436223
1678.0,0.0437554
1686.0,0.0441566
1694.0,0.0442244
1702.0,0.0441025
1710.0,0.0443233
1718.0,0.0444125
1726.0,0.0432272
1734.0,0.0426848
1742.0,0.0417825
1750.0,0.0404641
1758.0,0.0399777
1766.0,0.0392092
1774.0,0.0400336
1782.0,0.0390897
1790.0,0.0384082
1798.0,0.0396489
1806.0,0.0466219
1814.0,0.0731465
1822.0,0.0721485
1830.0,0.0240519
1838.0,0.0
1846.0,0.0
1854.0,0.104898
1862.0,0.842932
1870.0,0.978256
1878.0,0.318758
1886.0,0.123489
1894.0,0.0734623
1902.0,0.0
1910.0,0.352974
1918.0,0.02672
1926.0,0.042703
1934.0,0.0111464
1942.0,0.0
1950.0,0.0156568
1958.0,0.0238762
1966.0,0.0101847
1974.0,0.00988894
1982.0,0.0101883
1990.0,0.00745966
1998.0,0.00650787
2006.0,0.0214746
2014.0,0.0167873
2022.0,0.0100704
2030.0,0.0117623
2038.0,0.0120166
2046.0,0.0138499
2054.0,0.0173088
2062.0,0.0126772
2070.0,0.015691
2078.0,0.0157218
2086.0,0.0159113
2094.0,0.0180022
2102.0,0.0179202
2110.0,0.0187249
2118.0,0.0191887
2126.0,0.0210487
2134.0,0.0225723
2142.0,0.0225905
2150.0,0.0235426
2158.0,0.0240445
2166.0,0.0250983
2174.0,0.0231775
2182.0,0.0223848
2190.0,0.0217588
2198.0,0.023756
2206.0,0.022783
2214.0,0.0261307
2222.0,0.024907
2230.0,0.024488
2238.0,0.023805
2246.0,0.025482
2254.0,0.0232592
2262.0,0.0220928
2270.0,0.023802
2278.0,0.023957
2286.0,0.0182081
2294.0,0.0200046
2302.0,0.0178071
2310.0,0.020405
2318.0,0.0178096
2326.0,0.0201329
2334.0,0.0191007
2342.0,0.0195075
2350.0,0.0121269
2358.0,0.0144074
2366.0,0.0112938
2374.0,0.0120472
2382.0,0.015048
2390.0,0.00337299
2398.0,0.00938053
2406.0,0.0158482
2414.0,0.00910742
2422.0,0.00430345
2430.0,0.0181024
2438.0,0.00397242
2446.0,0.0152983
2454.0,0.000243033
2462.0,0.0
2470.0,0.0
2478.0,0.00283168
2486.0,0.107838
2494.0,0.368205
2500.0,0.0341051

File: AsphaltNassPfuetzen___corthum00443.txt
Wavelength (nm),Reflectance
350.0,0.0255446
358.0,0.0249599
366.0,0.0245949
374.0,0.024377
382.0,0.024529
390.0,0.0241871
398.0,0.0246704
406.0,0.0244976
414.0,0.0244543
422.0,0.0246834
430.0,0.024972
438.0,0.0253518
446.0,0.0256582
454.0,0.0259534
462.0,0.0262396
470.0,0.0265727
478.0,0.02685
486.0,0.0272642
494.0,0.0277083
502.0,0.0282586
510.0,0.0288034
518.0,0.0293955
526.0,0.0300294
534.0,0.0308442
542.0,0.0317986
550.0,0.0328076
558.0,0.0340879
566.0,0.0352863
574.0,0.036479
582.0,0.037472
590.0,0.0386418
598.0,0.0394173
606.0,0.0402218
614.0,0.0409919
622.0,0.0417384
630.0,0.0426082
638.0,0.0432739
646.0,0.0439491
654.0,0.0446564
662.0,0.0454349
670.0,0.0461901
678.0,0.0468613
686.0,0.0477217
694.0,0.0485749
702.0,0.0491496
710.0,0.0499084
718.0,0.0512174
726.0,0.0518187
734.0,0.0524243
742.0,0.0531066
750.0,0.053919
758.0,0.0547836
766.0,0.0560776
774.0,0.0562232
782.0,0.0569953
790.0,0.0576856
798.0,0.0582805
806.0,0.058953
814.0,0.0598728
822.0,0.0603296
830.0,0.0607118
838.0,0.0610178
846.0,0.0613073
854.0,0.0617933
862.0,0.0620451
870.0,0.0625243
878.0,0.0629749
886.0,0.0632991
894.0,0.0637657
902.0,0.064074
910.0,0.0643626
918.0,0.064799
926.0,0.0648298
934.0,0.0652107
942.0,0.0646243
950.0,0.0636538
958.0,0.0641397
966.0,0.0640397
974.0,0.0634121
982.0,0.0643703
990.0,0.0643517
998.0,0.0649089
1006.0,0.0673241
1014.0,0.0684327
1022.0,0.0689286
1030.0,0.0693332
1038.0,0.0697004
1046.0,0.0700903
1054.0,0.0707168
1062.0,0.070775
1070.0,0.0709357
1078.0,0.0711015
1086.0,0.0714165
1094.0,0.0710936
1102.0,0.0721212
1110.0,0.0718213
1118.0,0.0729738
1126.0,0.0740841
1134.0,0.0716954
1142.0,0.0697186
1150.0,0.0686848
1158.0,0.0663842
1166.0,0.0658269
1174.0,0.0656647
1182.0,0.0652987
1190.0,0.0656171
1198.0,0.0653502
1206.0,0.0655674
1214.0,0.0658948
1222.0,0.066106
1230.0,0.0660465
1238.0,0.0664727
1246.0,0.066836
1254.0,0.067231
1262.0,0.0678851
1270.0,0.0680605
1278.0,0.0681246
1286.0,0.0677778
1294.0,0.0673521
1302.0,0.0667148
1310.0,0.0660458
1318.0,0.0648979
1326.0,0.0633957
1334.0,0.0624017
1342.0,0.0605448
1350.0,0.0614105
1358.0,0.0676082
1366.0,0.00890344
1374.0,0.100739
1382.0,0.076417
1390.0,0.0698195
1398.0,0.0580312
1406.0,0.0429314
1414.0,0.0276939
1422.0,0.0257083
1430.0,0.0237929
1438.0,0.0216581
1446.0,0.020636
1454.0,0.0182683
1462.0,0.0184586
1470.0,0.0187087
1478.0,0.0184708
1486.0,0.0194948
1494.0,0.0202627
1502.0,0.0213468
1510.0,0.0225803
1518.0,0.0241956
1526.0,0.0259591
1534.0,0.0278052
1542.0,0.0296082
1550.0,0.0312089
1558.0,0.0330603
1566.0,0.0349917
1574.0,0.0368492
1582.0,0.0384029
1590.0,0.0393388
1598.0,0.0408201
1606.0,0.0417442
1614.0,0.0430751
1622.0,0.0436983
1630.0,0.0442277
1638.0,0.0449628
1646.0,0.0459408
1654.0,0.0464353
1662.0,0.0470676
1670.0,0.0469412
1678.0,0.047491
1686.0,0.0477879
1694.0,0.0476162
1702.0,0.0473392
1710.0,0.0471432
1718.0,0.0465815
1726.0,0.046226
1734.0,0.0458237
1742.0,0.0449941
1750.0,0.0440528
1758.0,0.0419671
1766.0,0.0423293
1774.0,0.0414355
1782.0,0.041824
1790.0,0.0415546
1798.0,0.0439722
1806.0,0.0545116
1814.0,0.083636
1822.0,0.0882962
1830.0,0.134699
1838.0,0.0
1846.0,0.0
1854.0,0.0
1862.0,1.0
1870.0,1.0
1878.0,0.491348
1886.0,0.182109
1894.0,0.202055
1902.0,0.0
1910.0,0.215817
1918.0,0.249082
1926.0,0.0633304
1934.0,0.029049
1942.0,0.00840304
1950.0,0.0272081
1958.0,0.0342775
1966.0,0.0105237
1974.0,0.010525
1982.0,0.00947499
1990.0,0.0128262
1998.0,0.0106723
2006.0,0.026604
2014.0,0.0179572
2022.0,0.0124425
2030.0,0.0119712
2038.0,0.0112947
2046.0,0.0125581
2054.0,0.0128618
2062.0,0.0160214
2070.0,0.0191417
2078.0,0.0173779
2086.0,0.017101
2094.0,0.0173199
2102.0,0.0184604
2110.0,0.020981
2118.0,0.0207364
2126.0,0.0214966
2134.0,0.0232385
2142.0,0.0233523
2150.0,0.0239041
2158.0,0.0244917
2166.0,0.0256306
2174.0,0.0245915
2182.0,0.0261364
2190.0,0.0263175
2198.0,0.0257736
2206.0,0.025486
2214.0,0.0244336
2222.0,0.0245024
2230.0,0.0236342
2238.0,0.0257199
2246.0,0.0252832
2254.0,0.0278444
2262.0,0.0295119
2270.0,0.0245937
2278.0,0.0227523
2286.0,0.0231336
2294.0,0.0198337
2302.0,0.0235966
2310.0,0.0153545
2318.0,0.0195585
2326.0,0.0222074
2334.0,0.0241837
2342.0,0.0226894
2350.0,0.0182304
2358.0,0.0263395
2366.0,0.0205161
2374.0,0.0223741
2382.0,0.0199342
2390.0,0.0119181
2398.0,0.0163036
2406.0,0.0192516
2414.0,0.0331986
2422.0,0.0296619
2430.0,0.0181429
2438.0,0.0144555
2446.0,0.0397851
2454.0,0.0271288
2462.0,0.0
2470.0,0.00478984
2478.0,0.00702548
2486.0,0.113768
2494.0,0.0
2500.0,0.104679

File: AsphaltNassPfuetzen___corthum00444.txt
Wavelength (nm),Reflectance
350.0,0.025173
358.0,0.0245508
366.0,0.0242277
374.0,0.0243275
382.0,0.0242211
390.0,0.024066
398.0,0.0243809
406.0,0.0242254
414.0,0.024251
422.0,0.024531
430.0,0.0249089
438.0,0.0252347
446.0,0.0255075
454.0,0.0258424
462.0,0.0261662
470.0,0.0265074
478.0,0.0268196
486.0,0.027247
494.0,0.0276905
502.0,0.0282063
510.0,0.0287539
518.0,0.0293439
526.0,0.0299452
534.0,0.0307818
542.0,0.0317136
550.0,0.0326852
558.0,0.0339583
566.0,0.0351883
574.0,0.0363682
582.0,0.0374073
590.0,0.0385311
598.0,0.0393157
606.0,0.0401449
614.0,0.0409709
622.0,0.0417332
630.0,0.0426316
638.0,0.0433002
646.0,0.044015
654.0,0.0448051
662.0,0.045596
670.0,0.046325
678.0,0.0471029
686.0,0.0480506
694.0,0.0488848
702.0,0.0495739
710.0,0.050351
718.0,0.0517318
726.0,0.0524629
734.0,0.0530855
742.0,0.0538364
750.0,0.0547512
758.0,0.0556846
766.0,0.0570838
774.0,0.0573318
782.0,0.0581728
790.0,0.0589589
798.0,0.0597117
806.0,0.0604459
814.0,0.061543
822.0,0.0620705
830.0,0.0624452
838.0,0.0628427
846.0,0.0633097
854.0,0.063844
862.0,0.0642634
870.0,0.0646443
878.0,0.0651609
886.0,0.0656431
894.0,0.0662867
902.0,0.0666849
910.0,0.0671551
918.0,0.067287
926.0,0.0674913
934.0,0.0676846
942.0,0.0677364
950.0,0.0666984
958.0,0.0659566
966.0,0.0656851
974.0,0.0658873
982.0,0.0655452
990.0,0.0662458
998.0,0.0665503
1006.0,0.0698926
1014.0,0.0700093
1022.0,0.0707215
1030.0,0.0714497
1038.0,0.0721932
1046.0,0.0726472
1054.0,0.0734504
1062.0,0.0734807
1070.0,0.0739557
1078.0,0.0742163
1086.0,0.0741807
1094.0,0.0745774
1102.0,0.0744901
1110.0,0.0741429
1118.0,0.0752434
1126.0,0.0762388
1134.0,0.0742869
1142.0,0.0718809
1150.0,0.0688506
1158.0,0.0669884
1166.0,0.0660491
1174.0,0.0656253
1182.0,0.0653865
1190.0,0.0652896
1198.0,0.0651935
1206.0,0.0656263
1214.0,0.0654891
1222.0,0.0657142
1230.0,0.0660797
1238.0,0.0665476
1246.0,0.0669027
1254.0,0.0671538
1262.0,0.067954
1270.0,0.0679248
1278.0,0.0679215
1286.0,0.0673901
1294.0,0.0669121
1302.0,0.0660847
1310.0,0.065014
1318.0,0.0634557
1326.0,0.0613671
1334.0,0.0595689
1342.0,0.0577291
1350.0,0.0576777
1358.0,0.0592965
1366.0,0.0
1374.0,0.0899649
1382.0,0.0107095
1390.0,0.0210951
1398.0,0.014146
1406.0,0.0215445
1414.0,0.0260952
1422.0,0.0184936
1430.0,0.0160697
1438.0,0.0162111
1446.0,0.0133503
1454.0,0.0132746
1462.0,0.0124712
1470.0,0.0129925
1478.0,0.0128517
1486.0,0.0133301
1494.0,0.0138759
1502.0,0.0149196
1510.0,0.0160946
1518.0,0.01719
1526.0,0.0188358
1534.0,0.0204202
1542.0,0.0222179
1550.0,0.0237664
1558.0,0.0257089
1566.0,0.0270014
1574.0,0.0289421
1582.0,0.0308176
1590.0,0.0320788
1598.0,0.0332049
1606.0,0.0345202
1614.0,0.0360634
1622.0,0.0368008
1630.0,0.0374134
1638.0,0.0375374
1646.0,0.0384082
1654.0,0.0385525
1662.0,0.0392248
1670.0,0.039728
1678.0,0.040426
1686.0,0.0403412
1694.0,0.0406535
1702.0,0.0407902
1710.0,0.0402666
1718.0,0.0403032
1726.0,0.0389935
1734.0,0.0380849
1742.0,0.0377716
1750.0,0.0363305
1758.0,0.0350587
1766.0,0.0335496
1774.0,0.0322348
1782.0,0.033279
1790.0,0.0326409
1798.0,0.0346917
1806.0,0.0425843
1814.0,0.0360471
1822.0,0.0541015
1830.0,0.0378296
1838.0,0.0
1846.0,0.0
1854.0,0.0
1862.0,0.0
1870.0,0.329488
1878.0,0.300009
1886.0,0.0856967
1894.0,0.0
1902.0,1.0
1910.0,0.0
1918.0,0.00877251
1926.0,0.0616566
1934.0,0.0
1942.0,0.00895903
1950.0,0.0116415
1958.0,0.0
1966.0,0.00681323
1974.0,0.00857665
1982.0,0.0066099
1990.0,0.00539685
1998.0,0.00838124
2006.0,0.0
2014.0,0.0211039
2022.0,0.0105578
2030.0,0.0063027
2038.0,0.00651688
2046.0,0.00754357
2054.0,0.0139573
2062.0,0.00906945
2070.0,0.0105055
2078.0,0.00836702
2086.0,0.00789539
2094.0,0.00957659
2102.0,0.0121645
2110.0,0.011742
2118.0,0.0113781
2126.0,0.0146799
2134.0,0.0135557
2142.0,0.0174082
2150.0,0.0164345
2158.0,0.0136566
2166.0,0.0154485
2174.0,0.0163862
2182.0,0.0156358
2190.0,0.0178587
2198.0,0.0173219
2206.0,0.0145529
2214.0,0.0171721
2222.0,0.0179838
2230.0,0.0162537
2238.0,0.0134953
2246.0,0.0170673
2254.0,0.0164098
2262.0,0.01432
2270.0,0.0167487
2278.0,0.0141909
2286.0,0.0108992
2294.0,0.0118605
2302.0,0.0144742
2310.0,0.00901116
2318.0,0.0125972
2326.0,0.010706
2334.0,0.0126084
2342.0,0.0105209
2350.0,0.0100264
2358.0,0.0161037
2366.0,0.00710448
2374.0,0.00910039
2382.0,0.00411913
2390.0,0.0151048
2398.0,0.0112112
2406.0,0.0175743
2414.0,0.0167709
2422.0,0.0
2430.0,0.0
2438.0,0.0102316
2446.0,0.00121258
2454.0,0.0211458
2462.0,0.015654
2470.0,0.0
2478.0,0.0
2486.0,0.0
2494.0,0.0
2500.0,0.0